#time,accel_x,accel_y,accel_z
928.073708,-962.267725,1149.143247,9770.718434
928.074038,-1110.308913,1149.143247,9548.656652
928.074367,-962.267725,766.095498,9474.636058
928.074697,-888.247130,536.266849,9548.656652
928.075026,-1110.308913,766.095498,9474.636058
928.075356,-1036.288319,766.095498,9622.677246
928.075685,-888.247130,919.314598,9474.636058
928.076015,-1258.350101,1608.800546,9474.636058
928.076344,-962.267725,1608.800546,9252.574275
928.076673,-1110.308913,842.705048,9622.677246
928.077003,-1184.329507,1072.533697,9696.697840
928.077332,-1110.308913,766.095498,9622.677246
928.077662,-888.247130,1072.533697,9622.677246
928.077991,-592.164754,612.876398,9622.677246
928.078321,-1036.288319,919.314598,9696.697840
928.078650,-962.267725,766.095498,9622.677246
928.078980,-1184.329507,766.095498,9474.636058
928.079309,-962.267725,766.095498,9770.718434
928.079638,-962.267725,995.924147,9622.677246
928.079968,-1184.329507,1149.143247,9400.615463
928.080297,-1184.329507,842.705048,9474.636058
928.080627,-1036.288319,995.924147,9622.677246
928.080956,-888.247130,842.705048,9548.656652
928.081286,-962.267725,766.095498,9474.636058
928.081615,-1332.370696,995.924147,9474.636058
928.081945,-1110.308913,919.314598,9474.636058
928.082274,-1110.308913,1072.533697,9474.636058
928.082604,-1110.308913,995.924147,9474.636058
928.082933,-1036.288319,459.657299,9104.533087
928.083262,-1258.350101,842.705048,9178.553681
928.083592,-962.267725,919.314598,9474.636058
928.083921,-1184.329507,689.485948,9548.656652
928.084251,-1110.308913,995.924147,9474.636058
928.084580,-1258.350101,919.314598,9326.594869
928.084910,-1332.370696,1149.143247,9252.574275
928.085239,-1036.288319,1149.143247,9474.636058
928.085569,-962.267725,1072.533697,9474.636058
928.085898,-1184.329507,919.314598,9474.636058
928.086227,-1110.308913,766.095498,9474.636058
928.086557,-666.185348,1072.533697,9696.697840
928.086886,-962.267725,766.095498,9474.636058
928.087216,-1110.308913,689.485948,9844.739029
928.087545,-1036.288319,766.095498,9622.677246
928.087875,-1036.288319,766.095498,9622.677246
928.088204,-888.247130,1378.971896,9622.677246
928.088534,-962.267725,919.314598,9326.594869
928.088863,-962.267725,995.924147,9474.636058
928.089192,-962.267725,842.705048,9548.656652
928.089522,-962.267725,919.314598,9696.697840
928.089851,-1258.350101,1302.362347,9548.656652
928.090181,-814.226536,1072.533697,9252.574275
928.090510,-888.247130,919.314598,9696.697840
928.090840,-1110.308913,919.314598,9622.677246
928.091169,-1184.329507,842.705048,9474.636058
928.091499,-888.247130,766.095498,9770.718434
928.091828,-814.226536,1302.362347,9622.677246
928.092158,-888.247130,383.047749,9400.615463
928.092487,-962.267725,919.314598,9474.636058
928.092816,-962.267725,842.705048,9770.718434
928.093146,-1110.308913,919.314598,9548.656652
928.093475,-592.164754,612.876398,9178.553681
928.093805,-962.267725,842.705048,9400.615463
928.094134,-1184.329507,919.314598,9474.636058
928.094464,-1110.308913,766.095498,9474.636058
928.094793,-1036.288319,1072.533697,9548.656652
928.095123,-962.267725,919.314598,9474.636058
928.095452,-814.226536,689.485948,9548.656652
928.095781,-888.247130,689.485948,9326.594869
928.096111,-1036.288319,842.705048,9474.636058
928.096440,-1036.288319,766.095498,9474.636058
928.096770,-1110.308913,1149.143247,9326.594869
928.097099,-222.061783,1149.143247,9178.553681
928.097429,148.041188,919.314598,8882.471304
928.097758,888.247130,459.657299,9326.594869
928.098088,962.267725,689.485948,9400.615463
928.098417,518.144159,612.876398,9474.636058
928.098747,0.000000,766.095498,9918.759623
928.099076,-666.185348,1149.143247,10066.800811
928.099405,-592.164754,919.314598,10658.965565
928.099735,-518.144159,459.657299,10140.821405
928.100064,-148.041188,153.219100,9548.656652
928.100394,592.164754,153.219100,9400.615463
928.100723,1332.370696,76.609550,9252.574275
928.101053,2368.659014,459.657299,9030.512492
928.101382,3182.885551,766.095498,8956.491898
928.101712,3552.988522,1302.362347,9104.533087
928.102041,3627.009116,1915.238745,9548.656652
928.102370,3034.844362,1532.190996,9844.739029
928.102700,2812.782580,1302.362347,10214.842000
928.103029,2072.576638,842.705048,10362.883188
928.103359,1332.370696,842.705048,10436.903782
928.103688,1406.391290,153.219100,10510.924376
928.104018,2146.597232,0.000000,9992.780217
928.104347,2146.597232,-689.485948,9252.574275
928.104677,2812.782580,-153.219100,9030.512492
928.105006,3849.070898,76.609550,8956.491898
928.105336,4293.194464,919.314598,9104.533087
928.105665,3997.112087,2451.505594,8956.491898
928.105994,3330.926739,2681.334243,9770.718434
928.106324,1924.535449,2834.553343,10288.862594
928.106653,0.000000,2987.772442,10510.924376
928.106983,-1628.453072,2298.286494,10066.800811
928.107312,-2146.597232,1378.971896,9178.553681
928.107642,-1332.370696,-229.828649,7402.059420
928.107971,222.061783,-919.314598,7254.018232
928.108301,1998.556043,-1149.143247,6661.853478
928.108630,3182.885551,-612.876398,6439.791695
928.108959,3849.070898,383.047749,7476.080014
928.109289,3478.967927,2604.724693,9252.574275
928.109618,2294.638420,4366.744339,11103.089130
928.109948,1332.370696,4213.525239,12583.501014
928.110277,222.061783,3140.991542,12805.562797
928.110607,-666.185348,1532.190996,12509.480420
928.110936,-962.267725,-536.266849,11991.336260
928.111266,-888.247130,-1762.019645,10881.027347
928.111595,74.020594,-2298.286494,9474.636058
928.111925,1332.370696,-2068.457845,8068.244768
928.112254,3182.885551,-1455.581446,7476.080014
928.112583,4367.215058,0.000000,7254.018232
928.112913,5329.482782,1225.752797,7624.121203
928.113242,4515.256246,2987.772442,8068.244768
928.113572,4219.173869,4136.915689,9030.512492
928.113901,3108.864956,3907.087040,9696.697840
928.114231,2368.659014,3294.210641,11029.068536
928.114560,888.247130,2681.334243,11251.130318
928.114890,-148.041188,689.485948,11103.089130
928.115219,-888.247130,-459.657299,10658.965565
928.115548,-1258.350101,-1455.581446,10436.903782
928.115878,-1036.288319,-1532.190996,10510.924376
928.116207,-296.082377,-1915.238745,10584.944971
928.116537,222.061783,-995.924147,9326.594869
928.116866,1332.370696,0.000000,9104.533087
928.117196,2516.700203,76.609550,8364.327145
928.117525,3552.988522,689.485948,8068.244768
928.117855,4589.276840,842.705048,8512.368333
928.118184,5107.421000,1072.533697,8364.327145
928.118514,4959.379811,1072.533697,8882.471304
928.118843,4071.132681,766.095498,9622.677246
928.119172,2664.741391,1378.971896,10436.903782
928.119502,1628.453072,1762.019645,10955.047942
928.119831,1184.329507,2068.457845,10955.047942
928.120161,1332.370696,1225.752797,10881.027347
928.120490,1110.308913,1608.800546,10732.986159
928.120820,296.082377,1455.581446,9844.739029
928.121149,0.000000,919.314598,8586.388927
928.121479,148.041188,229.828649,7994.224174
928.121808,592.164754,229.828649,7920.203579
928.122137,74.020594,383.047749,8438.347739
928.122467,-370.102971,689.485948,8512.368333
928.122796,-888.247130,612.876398,8734.430116
928.123126,-1628.453072,995.924147,8956.491898
928.123455,-1776.494261,1225.752797,9622.677246
928.123785,-1702.473667,1225.752797,10658.965565
928.124114,-2664.741391,1072.533697,11251.130318
928.124444,-3404.947333,919.314598,11251.130318
928.124773,-2960.823768,0.000000,10807.006753
928.125103,-1850.514855,0.000000,10066.800811
928.125432,0.000000,-459.657299,9696.697840
928.125761,1554.432478,995.924147,9104.533087
928.126091,3997.112087,1532.190996,8586.388927
928.126420,6143.709319,2145.067394,8660.409521
928.126750,6735.874072,2911.162892,8512.368333
928.127079,5107.421000,4903.011187,9252.574275
928.127409,3108.864956,4903.011187,10732.986159
928.127738,962.267725,4519.963438,11473.192101
928.128068,-1702.473667,3217.601092,11399.171507
928.128397,-3997.112087,383.047749,10732.986159
928.128726,-5477.523971,-2374.896044,10066.800811
928.129056,-7105.977043,-2451.505594,9178.553681
928.129385,-7624.121203,-2528.115143,8142.265362
928.129715,-6069.688724,-3064.381992,7031.956449
928.130044,-3330.926739,-2221.676944,6439.791695
928.130374,-666.185348,306.438199,6217.729913
928.130703,1406.391290,2757.943793,5477.523971
928.131033,3627.009116,3294.210641,5773.606348
928.131362,4737.318029,3524.039291,8142.265362
928.131692,3034.844362,4903.011187,10955.047942
928.132021,-444.123565,6205.373534,13175.665768
928.132350,-3256.906145,5056.230287,15100.201217
928.132680,-4885.359217,3370.820191,14656.077652
928.133009,-5033.400406,0.000000,11917.315666
928.133339,-4293.194464,-5515.887586,10807.006753
928.133668,-2812.782580,-6818.249932,10436.903782
928.133998,-2368.659014,-3600.648841,8956.491898
928.134327,-592.164754,-1762.019645,7402.059420
928.134657,1998.556043,459.657299,6291.750507
928.134986,5107.421000,1378.971896,5773.606348
928.135315,7994.224174,1685.410096,6439.791695
928.135645,8586.388927,3064.381992,7698.141797
928.135974,7031.956449,5898.935335,9326.594869
928.136304,3182.885551,6894.859482,11177.109724
928.136633,-814.226536,3907.087040,14137.933492
928.136963,-5107.421000,3294.210641,15174.221811
928.137292,-8660.409521,1072.533697,13619.789333
928.137622,-9770.718434,-2298.286494,11843.295072
928.137951,-10066.800811,-4443.353888,10214.842000
928.138281,-9178.553681,-4903.011187,8586.388927
928.138610,-6587.832884,-5515.887586,7105.977043
928.138939,-3701.029710,-3217.601092,5551.544565
928.139269,518.144159,1608.800546,3330.926739
928.139598,4589.276840,1915.238745,2812.782580
928.139928,7105.977043,1149.143247,5625.565159
928.140257,6883.915261,3294.210641,8660.409521
928.140587,4441.235652,5745.716235,11621.233289
928.140916,740.205942,6435.202183,14285.974681
928.141246,-3108.864956,6665.030833,15322.262999
928.141575,-6143.709319,2987.772442,15322.262999
928.141904,-7254.018232,-2681.334243,13693.809927
928.142234,-6809.894666,-4596.572988,11843.295072
928.142563,-5255.462188,-4443.353888,9252.574275
928.142893,-3108.864956,-3830.477490,6587.832884
928.143222,-444.123565,-3753.867940,5773.606348
928.143552,3182.885551,-919.314598,4367.215058
928.143881,6439.791695,1608.800546,3182.885551
928.144211,7994.224174,3600.648841,4885.359217
928.144540,7105.977043,6358.592633,8364.327145
928.144870,2886.803174,6665.030833,11843.295072
928.145199,-1480.411884,6052.154434,15248.242405
928.145529,-5773.606348,5132.839837,16728.654289
928.145859,-9474.636058,2834.553343,15988.448347
928.146188,-11621.233289,-1302.362347,13101.645173
928.146518,-11547.212695,-5822.325785,10584.944971
928.146847,-8660.409521,-7814.174080,7994.224174
928.147177,-4441.235652,-6741.640382,5847.626942
928.147507,0.000000,-4519.963438,4367.215058
928.147836,4885.359217,-766.095498,3997.112087
928.148166,7698.141797,1762.019645,3775.050304
928.148495,9400.615463,4826.401637,5255.462188
928.148825,9474.636058,7737.564530,8438.347739
928.149154,7254.018232,9193.145976,12361.439231
928.149484,2960.823768,9269.755526,15544.324782
928.149814,-1924.535449,7048.078582,16432.571912
928.150143,-6587.832884,3753.867940,15174.221811
928.150473,-8586.388927,-689.485948,12583.501014
928.150802,-9104.533087,-5286.058936,10362.883188
928.151132,-7624.121203,-7124.688131,8364.327145
928.151461,-5699.585753,-6511.811733,6217.729913
928.151791,-2294.638420,-4519.963438,4145.153275
928.152121,2442.679609,-2451.505594,2960.823768
928.152450,6365.771101,-536.266849,3552.988522
928.152780,7994.224174,3677.258390,6439.791695
928.153109,6809.894666,7814.174080,9178.553681
928.153439,4219.173869,10035.851024,11991.336260
928.153768,962.267725,9116.536426,14063.912898
928.154098,-2590.720797,6052.154434,15470.304188
928.154428,-5847.626942,2145.067394,15692.365970
928.154757,-8734.430116,-1072.533697,13397.727550
928.155087,-9770.718434,-4443.353888,10066.800811
928.155416,-8216.285956,-6818.249932,8734.430116
928.155746,-5329.482782,-6588.421283,7698.141797
928.156076,-1480.411884,-3983.696590,6883.915261
928.156405,2738.761985,-306.438199,4515.256246
928.156735,6587.832884,3217.601092,2738.761985
928.157064,8882.471304,4673.182538,4145.153275
928.157394,8290.306550,5745.716235,8660.409521
928.157723,4367.215058,8197.221829,12953.603985
928.158053,-666.185348,8810.098227,15840.407159
928.158383,-5107.421000,7431.126331,17690.922014
928.158712,-8808.450710,4519.963438,16136.489536
928.159042,-9844.739029,-1302.362347,12361.439231
928.159371,-8808.450710,-7814.174080,8438.347739
928.159701,-5847.626942,-8886.707777,6217.729913
928.160030,-3627.009116,-6205.373534,5699.585753
928.160360,-1406.391290,-3140.991542,5847.626942
928.160690,740.205942,1149.143247,4589.276840
928.161019,4589.276840,3370.820191,3478.967927
928.161349,8808.450710,3600.648841,4811.338623
928.161678,9400.615463,6128.763984,8956.491898
928.162008,5773.606348,7354.516781,12731.542202
928.162337,222.061783,7584.345430,15100.201217
928.162667,-4737.318029,6665.030833,16136.489536
928.162997,-7624.121203,4290.134789,15322.262999
928.163326,-8216.285956,-2681.334243,12879.583391
928.163656,-8290.306550,-8197.221829,10140.821405
928.163985,-7105.977043,-7814.174080,7476.080014
928.164315,-4885.359217,-6052.154434,6439.791695
928.164645,-1480.411884,-3600.648841,5699.585753
928.164974,2294.638420,-383.047749,4737.318029
928.165304,6217.729913,459.657299,4737.318029
928.165633,8216.285956,2451.505594,6143.709319
928.165963,7994.224174,7660.954980,8586.388927
928.166292,5921.647536,8273.831378,11547.212695
928.166622,2294.638420,7124.688131,13101.645173
928.166952,-2220.617826,4903.011187,14508.036463
928.167281,-5255.462188,995.924147,15618.345376
928.167611,-8216.285956,-2451.505594,15100.201217
928.167940,-10288.862594,-3830.477490,12065.356855
928.168270,-9622.677246,-5745.716235,8216.285956
928.168599,-5995.668130,-7431.126331,6365.771101
928.168929,-962.267725,-5439.278036,5181.441594
928.169259,3701.029710,-2757.943793,4219.173869
928.169588,7031.956449,-153.219100,4515.256246
928.169918,7698.141797,6205.373534,4737.318029
928.170247,6957.935855,7890.783629,7476.080014
928.170577,5773.606348,6358.592633,11991.336260
928.170906,2072.576638,7354.516781,14656.077652
928.171236,-2220.617826,6435.202183,15692.365970
928.171566,-6513.812290,3140.991542,15544.324782
928.171895,-9400.615463,-919.314598,14359.995275
928.172225,-10658.965565,-5209.449386,11251.130318
928.172554,-9178.553681,-8656.879127,8216.285956
928.172884,-7179.997637,-7277.907231,6365.771101
928.173214,-3330.926739,-3140.991542,5699.585753
928.173543,1776.494261,-1762.019645,5181.441594
928.173873,6217.729913,2298.286494,2812.782580
928.174202,8438.347739,5056.230287,2294.638420
928.174532,9030.512492,6281.983084,6809.894666
928.174861,6143.709319,9346.365076,12139.377449
928.175191,0.000000,10265.679673,16136.489536
928.175521,-6439.791695,7584.345430,17394.839637
928.175850,-11399.171507,4903.011187,16062.468941
928.176180,-12953.603985,-229.828649,13323.706956
928.176509,-11177.109724,-8810.098227,10436.903782
928.176839,-9104.533087,-11261.603821,7550.100608
928.177168,-6735.874072,-8350.440928,4885.359217
928.177498,-2812.782580,-6128.763984,4441.235652
928.177828,2442.679609,-2068.457845,5329.482782
928.178157,6587.832884,3753.867940,4367.215058
928.178487,11029.068536,5669.106685,4441.235652
928.178816,12731.542202,8120.612279,7476.080014
928.179146,10658.965565,11338.213370,12287.418637
928.179476,5995.668130,11031.775171,15544.324782
928.179805,0.000000,8733.488677,16580.613101
928.180135,-5921.647536,5822.325785,16432.571912
928.180464,-8660.409521,0.000000,15544.324782
928.180794,-9844.739029,-6588.421283,13027.624579
928.181123,-9548.656652,-9116.536426,8660.409521
928.181453,-7772.162391,-7890.783629,4959.379811
928.181783,-4589.276840,-6665.030833,2812.782580
928.182112,444.123565,-3370.820191,2886.803174
928.182442,4589.276840,-306.438199,4219.173869
928.182771,7105.977043,4290.134789,4959.379811
928.183101,6735.874072,10342.289223,6365.771101
928.183430,4885.359217,9729.412825,9992.780217
928.183760,2738.761985,8350.440928,14804.118840
928.184090,-1998.556043,7584.345430,16358.551318
928.184419,-6143.709319,4673.182538,16136.489536
928.184749,-7846.182985,612.876398,13989.892304
928.185078,-7994.224174,-4826.401637,11251.130318
928.185408,-6661.853478,-8963.317327,9030.512492
928.185737,-4589.276840,-9882.631924,6883.915261
928.186067,-2368.659014,-4826.401637,5477.523971
928.186397,1628.453072,-919.314598,5107.421000
928.186726,6069.688724,919.314598,6069.688724
928.187056,8660.409521,5209.449386,6217.729913
928.187385,9548.656652,7660.954980,6809.894666
928.187715,8364.327145,6971.469032,9326.594869
928.188045,5477.523971,7660.954980,13249.686362
928.188374,1110.308913,7890.783629,15396.283594
928.188704,-4663.297435,4443.353888,15026.180623
928.189033,-8808.450710,-612.876398,13767.830521
928.189363,-11103.089130,-4596.572988,11769.274478
928.189692,-10584.944971,-7660.954980,9844.739029
928.190022,-9474.636058,-8580.269578,7476.080014
928.190352,-6957.935855,-6894.859482,6291.750507
928.190681,-3034.844362,-4290.134789,6365.771101
928.191011,1776.494261,-306.438199,5107.421000
928.191340,5847.626942,3830.477490,4293.194464
928.191670,7698.141797,4673.182538,5107.421000
928.191999,7105.977043,7048.078582,9252.574275
928.192329,3552.988522,8044.002729,13397.727550
928.192659,0.000000,6894.859482,16432.571912
928.192988,-4367.215058,5515.887586,17172.777854
928.193318,-7920.203579,3907.087040,14656.077652
928.193647,-8512.368333,-3217.601092,10214.842000
928.193977,-6809.894666,-10189.070123,7624.121203
928.194306,-4589.276840,-9422.974625,6217.729913
928.194636,-3330.926739,-6052.154434,5847.626942
928.194966,-1406.391290,-3064.381992,6217.729913
928.195295,1258.350101,689.485948,6291.750507
928.195625,4737.318029,3600.648841,5551.544565
928.195954,8290.306550,4903.011187,6069.688724
928.196284,8438.347739,6511.811733,8734.430116
928.196614,5403.503377,8273.831378,12435.459826
928.196943,592.164754,6741.640382,14878.139434
928.197273,-4589.276840,5669.106685,15988.448347
928.197602,-8586.388927,3294.210641,14730.098246
928.197932,-10584.944971,-2451.505594,12361.439231
928.198261,-10362.883188,-7354.516781,9918.759623
928.198591,-8882.471304,-8427.050478,7179.997637
928.198921,-5847.626942,-7354.516781,6439.791695
928.199250,-2442.679609,-4673.182538,5995.668130
928.199580,592.164754,459.657299,4811.338623
928.199909,4367.215058,4213.525239,3997.112087
928.200239,8068.244768,4826.401637,5181.441594
928.200568,9030.512492,6665.030833,8290.306550
928.200898,6365.771101,8427.050478,12139.377449
928.201228,1480.411884,7967.393179,15544.324782
928.201557,-3627.009116,7048.078582,17098.757260
928.201887,-7846.182985,4979.620737,15988.448347
928.202216,-9252.574275,-1532.190996,12953.603985
928.202546,-7476.080014,-8044.002729,9548.656652
928.202875,-6587.832884,-9039.926876,7105.977043
928.203205,-4737.318029,-6281.983084,5625.565159
928.203535,-1850.514855,-3447.429741,5181.441594
928.203864,2072.576638,0.000000,5255.462188
928.204194,5329.482782,2911.162892,5625.565159
928.204523,8216.285956,4826.401637,6217.729913
928.204853,8142.265362,9039.926876,7994.224174
928.205183,6069.688724,9959.241474,10658.965565
928.205512,2590.720797,7967.393179,13619.789333
928.205842,-2664.741391,6435.202183,14804.118840
928.206171,-6513.812290,3600.648841,14211.954086
928.206501,-9104.533087,-766.095498,12879.583391
928.206830,-10732.986159,-4519.963438,9844.739029
928.207160,-9548.656652,-7507.735880,7179.997637
928.207490,-6957.935855,-8886.707777,5699.585753
928.207819,-3404.947333,-6511.811733,5329.482782
928.208149,1184.329507,-1302.362347,5773.606348
928.208478,4959.379811,1838.629195,6143.709319
928.208808,7402.059420,5515.887586,6291.750507
928.209137,7550.100608,7660.954980,7550.100608
928.209467,6735.874072,7354.516781,10658.965565
928.209797,3627.009116,8503.660028,14285.974681
928.210126,-666.185348,7431.126331,15914.427753
928.210456,-4737.318029,4443.353888,15840.407159
928.210785,-7476.080014,536.266849,12879.583391
928.211115,-7920.203579,-4979.620737,9252.574275
928.211444,-6587.832884,-9729.412825,7105.977043
928.211774,-5477.523971,-8580.269578,6809.894666
928.212104,-3997.112087,-4673.182538,7105.977043
928.212433,-1036.288319,-1838.629195,7031.956449
928.212763,2516.700203,995.924147,6587.832884
928.213092,6217.729913,4519.963438,6069.688724
928.213422,8290.306550,5439.278036,7772.162391
928.213752,7254.018232,7354.516781,10658.965565
928.214081,3330.926739,8350.440928,13693.809927
928.214411,-1036.288319,6741.640382,15618.345376
928.214740,-5403.503377,4749.792088,14656.077652
928.215070,-8586.388927,612.876398,12583.501014
928.215399,-9474.636058,-5975.544884,11029.068536
928.215729,-8882.471304,-8350.440928,8734.430116
928.216059,-7402.059420,-7507.735880,6587.832884
928.216388,-4367.215058,-6052.154434,4811.338623
928.216718,-518.144159,-3217.601092,5107.421000
928.217047,3849.070898,459.657299,5773.606348
928.217377,7328.038826,2834.553343,6809.894666
928.217706,8142.265362,5745.716235,8734.430116
928.218036,6587.832884,10801.946522,10214.842000
928.218366,3552.988522,10418.898773,11843.295072
928.218695,888.247130,6281.983084,13471.748144
928.219025,-2294.638420,3907.087040,14211.954086
928.219354,-5551.544565,383.047749,13175.665768
928.219684,-7846.182985,-3830.477490,10807.006753
928.220013,-8660.409521,-6358.592633,8660.409521
928.220343,-7846.182985,-6435.202183,6957.935855
928.220673,-5403.503377,-6205.373534,6217.729913
928.221002,-1628.453072,-3524.039291,6365.771101
928.221332,2368.659014,306.438199,6439.791695
928.221661,5625.565159,3524.039291,7105.977043
928.221991,6143.709319,5975.544884,7476.080014
928.222321,5477.523971,7814.174080,9622.677246
928.222650,3108.864956,7431.126331,12509.480420
928.222980,296.082377,6971.469032,14211.954086
928.223309,-3552.988522,4979.620737,14285.974681
928.223639,-6069.688724,612.876398,12879.583391
928.223968,-7846.182985,-4596.572988,11251.130318
928.224298,-8956.491898,-7201.297681,9400.615463
928.224628,-7624.121203,-6511.811733,7846.182985
928.224957,-4885.359217,-5209.449386,7402.059420
928.225287,-1184.329507,-2451.505594,6587.832884
928.225616,3256.906145,995.924147,6439.791695
928.225946,6735.874072,3753.867940,5625.565159
928.226275,8290.306550,5822.325785,6587.832884
928.226605,7105.977043,7431.126331,9326.594869
928.226935,2368.659014,8656.879127,12657.521608
928.227264,-3404.947333,8427.050478,14434.015869
928.227594,-7772.162391,5132.839837,14878.139434
928.227923,-10214.842000,536.266849,13619.789333
928.228253,-10732.986159,-4903.011187,11029.068536
928.228582,-9474.636058,-8886.707777,8660.409521
928.228912,-7476.080014,-9806.022374,6069.688724
928.229242,-4737.318029,-6741.640382,5255.462188
928.229571,-518.144159,-2987.772442,5329.482782
928.229901,3923.091493,536.266849,6439.791695
928.230230,7772.162391,4290.134789,7105.977043
928.230560,9844.739029,8350.440928,7328.038826
928.230890,9844.739029,9806.022374,9326.594869
928.231219,7402.059420,9116.536426,12287.418637
928.231549,3404.947333,8044.002729,14137.933492
928.231878,-2072.576638,5669.106685,14137.933492
928.232208,-5847.626942,2298.286494,13101.645173
928.232537,-7476.080014,-3677.258390,12953.603985
928.232867,-9326.594869,-6818.249932,10584.944971
928.233197,-9400.615463,-7354.516781,7994.224174
928.233526,-7402.059420,-6511.811733,5921.647536
928.233856,-3404.947333,-3983.696590,4885.359217
928.234185,1480.411884,-1072.533697,5477.523971
928.234515,4811.338623,2374.896044,5995.668130
928.234844,6143.709319,5439.278036,6217.729913
928.235174,6143.709319,8273.831378,7994.224174
928.235504,4441.235652,8580.269578,11547.212695
928.235833,1480.411884,8044.002729,14211.954086
928.236163,-2886.803174,5745.716235,14359.995275
928.236492,-5699.585753,1915.238745,13841.851115
928.236822,-7254.018232,-1915.238745,12435.459826
928.237152,-7920.203579,-4903.011187,10510.924376
928.237481,-6735.874072,-6894.859482,7994.224174
928.237811,-4589.276840,-6588.421283,7105.977043
928.238140,-1480.411884,-2145.067394,7031.956449
928.238470,2516.700203,1149.143247,6439.791695
928.238799,6735.874072,2528.115143,6439.791695
928.239129,9030.512492,4366.744339,5921.647536
928.239459,8216.285956,7201.297681,7179.997637
928.239788,5995.668130,7660.954980,10881.027347
928.240118,2146.597232,7431.126331,13619.789333
928.240447,-2738.761985,6052.154434,14211.954086
928.240777,-6513.812290,2298.286494,13693.809927
928.241106,-8438.347739,-2145.067394,12583.501014
928.241436,-9548.656652,-6281.983084,11103.089130
928.241766,-9622.677246,-6894.859482,8808.450710
928.242095,-8216.285956,-6128.763984,6587.832884
928.242425,-4811.338623,-4519.963438,6069.688724
928.242754,0.000000,-2298.286494,6291.750507
928.243084,4441.235652,1608.800546,6069.688724
928.243413,6587.832884,5132.839837,5033.400406
928.243743,7105.977043,5975.544884,6513.812290
928.244073,5847.626942,6894.859482,9770.718434
928.244402,2738.761985,7048.078582,13915.871710
928.244732,-1036.288319,5515.887586,15396.283594
928.245061,-5329.482782,3524.039291,14804.118840
928.245391,-8068.244768,76.609550,13027.624579
928.245721,-8438.347739,-4673.182538,10584.944971
928.246050,-7105.977043,-8580.269578,8956.491898
928.246380,-5033.400406,-7277.907231,7624.121203
928.246709,-3108.864956,-3447.429741,7105.977043
928.247039,74.020594,-1149.143247,6439.791695
928.247368,3997.112087,919.314598,5921.647536
928.247698,7254.018232,2374.896044,5921.647536
928.248027,8364.327145,4290.134789,7476.080014
928.248357,6957.935855,7431.126331,10436.903782
928.248686,3034.844362,7890.783629,12805.562797
928.249016,-1184.329507,6281.983084,14137.933492
928.249346,-5625.565159,2604.724693,14211.954086
928.249675,-7994.224174,-689.485948,13915.871710
928.250005,-9474.636058,-4290.134789,11917.315666
928.250334,-10066.800811,-6128.763984,9918.759623
928.250664,-8364.327145,-5515.887586,8290.306550
928.250993,-4885.359217,-4903.011187,7031.956449
928.251323,-666.185348,-2987.772442,5625.565159
928.251652,3552.988522,536.266849,4071.132681
928.251982,6957.935855,4596.572988,3849.070898
928.252312,8068.244768,5669.106685,5403.503377
928.252641,6883.915261,6435.202183,9030.512492
928.252971,3404.947333,7124.688131,12953.603985
928.253300,-888.247130,6358.592633,15544.324782
928.253630,-4811.338623,5515.887586,15692.365970
928.253959,-8512.368333,2681.334243,14582.057057
928.254289,-9622.677246,-2681.334243,11843.295072
928.254618,-8142.265362,-7814.174080,9326.594869
928.254948,-5625.565159,-6741.640382,7698.141797
928.255277,-3034.844362,-3907.087040,7328.038826
928.255607,-296.082377,-766.095498,6439.791695
928.255937,2812.782580,1762.019645,5181.441594
928.256266,6365.771101,3294.210641,4515.256246
928.256596,9178.553681,4979.620737,5699.585753
928.256925,8216.285956,7584.345430,8364.327145
928.257255,5107.421000,8273.831378,11991.336260
928.257584,0.000000,7201.297681,14063.912898
928.257914,-4885.359217,5056.230287,14656.077652
928.258243,-7476.080014,1608.800546,13989.892304
928.258573,-8512.368333,-2298.286494,12879.583391
928.258902,-8808.450710,-5898.935335,10288.862594
928.259232,-7920.203579,-6052.154434,8512.368333
928.259562,-5107.421000,-5209.449386,7105.977043
928.259891,-1258.350101,-2528.115143,5699.585753
928.260221,3404.947333,766.095498,5329.482782
928.260550,6735.874072,2604.724693,5255.462188
928.260880,7846.182985,6052.154434,5625.565159
928.261209,6735.874072,7277.907231,7328.038826
928.261539,4589.276840,6588.421283,10807.006753
928.261868,814.226536,6358.592633,13989.892304
928.262198,-3627.009116,5515.887586,15322.262999
928.262528,-6513.812290,2604.724693,14656.077652
928.262857,-8808.450710,-1225.752797,11917.315666
928.263187,-8364.327145,-5286.058936,9252.574275
928.263516,-6513.812290,-7660.954980,7994.224174
928.263846,-4145.153275,-5362.668486,7254.018232
928.264175,-962.267725,-1455.581446,6957.935855
928.264505,2368.659014,306.438199,5995.668130
928.264834,5921.647536,2221.676944,5329.482782
928.265164,7772.162391,3677.258390,5921.647536
928.265493,7624.121203,4903.011187,8808.450710
928.265823,4589.276840,7354.516781,12213.398043
928.266153,444.123565,8120.612279,14434.015869
928.266482,-3330.926739,5209.449386,14952.160028
928.266812,-6587.832884,536.266849,14582.057057
928.267141,-8660.409521,-3600.648841,13767.830521
928.267471,-9252.574275,-5592.497135,11251.130318
928.267800,-8142.265362,-6128.763984,8512.368333
928.268130,-5551.544565,-5056.230287,6439.791695
928.268459,-1554.432478,-4060.306139,5033.400406
928.268789,3330.926739,-2681.334243,4071.132681
928.269118,7254.018232,766.095498,4515.256246
928.269448,8142.265362,4903.011187,5625.565159
928.269778,6513.812290,9039.926876,7846.182985
928.270107,3404.947333,9269.755526,10658.965565
928.270437,740.205942,5898.935335,14137.933492
928.270766,-2368.659014,4826.401637,15396.283594
928.271096,-5551.544565,2374.896044,14285.974681
928.271425,-8142.265362,-1532.190996,13101.645173
928.271755,-9918.759623,-4903.011187,10214.842000
928.272084,-8586.388927,-6971.469032,8216.285956
928.272414,-5255.462188,-7201.297681,7328.038826
928.272744,-1850.514855,-3064.381992,7105.977043
928.273073,1702.473667,306.438199,5773.606348
928.273403,4885.359217,1532.190996,5477.523971
928.273732,7550.100608,2681.334243,6217.729913
928.274062,7772.162391,6281.983084,7994.224174
928.274391,6217.729913,7737.564530,10584.944971
928.274721,2590.720797,7201.297681,13027.624579
928.275050,-1776.494261,6052.154434,14359.995275
928.275380,-4737.318029,1762.019645,14804.118840
928.275709,-7179.997637,-2221.676944,14211.954086
928.276039,-8512.368333,-3907.087040,12139.377449
928.276369,-8290.306550,-4673.182538,8956.491898
928.276698,-6735.874072,-4596.572988,7105.977043
928.277028,-2886.803174,-3830.477490,5625.565159
928.277357,1702.473667,-1991.848295,4515.256246
928.277687,5107.421000,229.828649,4885.359217
928.278016,6735.874072,4826.401637,5255.462188
928.278346,4737.318029,7814.174080,6957.935855
928.278675,2812.782580,6818.249932,9992.780217
928.279005,296.082377,5056.230287,13323.706956
928.279334,-3256.906145,4673.182538,14878.139434
928.279664,-6143.709319,2834.553343,14434.015869
928.279994,-7846.182985,-536.266849,13397.727550
928.280323,-8882.471304,-4443.353888,11103.089130
928.280653,-7328.038826,-7431.126331,8882.471304
928.280982,-4589.276840,-7201.297681,7772.162391
928.281312,-1480.411884,-2451.505594,7550.100608
928.281641,1776.494261,689.485948,6735.874072
928.281971,5181.441594,2068.457845,6291.750507
928.282300,7994.224174,3370.820191,6587.832884
928.282630,9178.553681,5439.278036,7772.162391
928.282960,7920.203579,7737.564530,10436.903782
928.283289,4589.276840,7967.393179,12435.459826
928.283619,0.000000,6588.421283,14063.912898
928.283948,-4737.318029,3064.381992,14285.974681
928.284278,-7772.162391,-919.314598,13619.789333
928.284607,-9474.636058,-3447.429741,11843.295072
928.284937,-9474.636058,-5286.058936,9474.636058
928.285266,-7846.182985,-5286.058936,7624.121203
928.285596,-5329.482782,-5056.230287,6143.709319
928.285925,-1184.329507,-3600.648841,4737.318029
928.286255,3330.926739,-306.438199,4441.235652
928.286585,6661.853478,4290.134789,4737.318029
928.286914,7254.018232,6971.469032,6143.709319
928.287244,5551.544565,6971.469032,8734.430116
928.287573,2960.823768,7048.078582,12139.377449
928.287903,-370.102971,6818.249932,14359.995275
928.288232,-3701.029710,5822.325785,15174.221811
928.288562,-6661.853478,2451.505594,14063.912898
928.288891,-8290.306550,-1915.238745,11621.233289
928.289221,-7994.224174,-6511.811733,8734.430116
928.289550,-5107.421000,-7584.345430,7402.059420
928.289880,-2368.659014,-4749.792088,6957.935855
928.290210,296.082377,-1072.533697,5773.606348
928.290539,3182.885551,383.047749,5107.421000
928.290869,6587.832884,1915.238745,5847.626942
928.291198,7994.224174,4826.401637,7476.080014
928.291528,7105.977043,7814.174080,10288.862594
928.291857,4219.173869,9116.536426,12879.583391
928.292187,-148.041188,7737.564530,13841.851115
928.292516,-4071.132681,3830.477490,14211.954086
928.292846,-6661.853478,-689.485948,14359.995275
928.293176,-8882.471304,-3907.087040,12953.603985
928.293505,-10214.842000,-4826.401637,10066.800811
928.293835,-8734.430116,-5669.106685,7328.038826
928.294164,-6069.688724,-6128.763984,6365.771101
928.294494,-1110.308913,-4596.572988,5181.441594
928.294823,3404.947333,-1532.190996,4885.359217
928.295153,6439.791695,2911.162892,4959.379811
928.295482,7402.059420,7737.564530,6217.729913
928.295812,6439.791695,7967.393179,8216.285956
928.296141,3997.112087,6971.469032,11769.274478
928.296471,296.082377,6205.373534,14656.077652
928.296801,-3478.967927,5362.668486,15692.365970
928.297130,-7031.956449,3830.477490,14582.057057
928.297460,-9030.512492,-1302.362347,11769.274478
928.297789,-9104.533087,-7354.516781,8364.327145
928.298119,-6365.771101,-10112.460574,7254.018232
928.298448,-3478.967927,-7124.688131,6957.935855
928.298778,-962.267725,-1915.238745,6069.688724
928.299107,2220.617826,0.000000,5181.441594
928.299437,5329.482782,1455.581446,5847.626942
928.299766,7698.141797,3677.258390,7254.018232
928.300096,7846.182985,6971.469032,9844.739029
928.300426,5329.482782,9039.926876,12213.398043
928.300755,1480.411884,8120.612279,13323.706956
928.301085,-2664.741391,4519.963438,14211.954086
928.301414,-5773.606348,229.828649,14582.057057
928.301744,-8142.265362,-2681.334243,12805.562797
928.302073,-9622.677246,-5209.449386,10214.842000
928.302403,-9474.636058,-6052.154434,8142.265362
928.302732,-6883.915261,-6818.249932,7105.977043
928.303062,-2664.741391,-5592.497135,6217.729913
928.303392,1258.350101,-2221.676944,5181.441594
928.303721,4811.338623,2681.334243,4663.297435
928.304051,6809.894666,6435.202183,5699.585753
928.304380,6735.874072,6665.030833,8068.244768
928.304710,4663.297435,7201.297681,11621.233289
928.305039,888.247130,7354.516781,14285.974681
928.305369,-2738.761985,6128.763984,15544.324782
928.305698,-6513.812290,4060.306139,14656.077652
928.306028,-8734.430116,-1072.533697,11991.336260
928.306357,-8734.430116,-7584.345430,9400.615463
928.306687,-6883.915261,-10035.851024,7624.121203
928.307017,-4811.338623,-6665.030833,7179.997637
928.307346,-2368.659014,-2681.334243,6957.935855
928.307676,1036.288319,-229.828649,6365.771101
928.308005,4293.194464,1838.629195,5773.606348
928.308335,7624.121203,4136.915689,6883.915261
928.308664,9104.533087,7354.516781,9030.512492
928.308994,7179.997637,9959.241474,11547.212695
928.309323,3404.947333,9346.365076,13249.686362
928.309653,-1554.432478,5515.887586,13471.748144
928.309982,-5625.565159,2221.676944,13619.789333
928.310312,-7846.182985,-1149.143247,12731.542202
928.310642,-9252.574275,-4136.915689,10732.986159
928.310971,-9474.636058,-6205.373534,8438.347739
928.311301,-7105.977043,-7048.078582,6587.832884
928.311630,-3849.070898,-5975.544884,5329.482782
928.311960,888.247130,-2451.505594,5107.421000
928.312289,4811.338623,1532.190996,5477.523971
928.312619,7254.018232,5822.325785,6217.729913
928.312948,6883.915261,8886.707777,7254.018232
928.313278,5403.503377,8273.831378,9918.759623
928.313608,2516.700203,7967.393179,13323.706956
928.313937,-1258.350101,7660.954980,15174.221811
928.314267,-4737.318029,5056.230287,14211.954086
928.314596,-7328.038826,766.095498,12213.398043
928.314926,-7994.224174,-4903.011187,9252.574275
928.315255,-7254.018232,-8656.879127,7328.038826
928.315585,-5995.668130,-8580.269578,7031.956449
928.315914,-4145.153275,-3677.258390,7624.121203
928.316244,-888.247130,153.219100,7550.100608
928.316573,2368.659014,1378.971896,7105.977043
928.316903,5773.606348,3524.039291,7402.059420
928.317233,7402.059420,6358.592633,9030.512492
928.317562,6957.935855,8427.050478,11029.068536
928.317892,4071.132681,8580.269578,12805.562797
928.318221,666.185348,5898.935335,13397.727550
928.318551,-3330.926739,1838.629195,14211.954086
928.318880,-6439.791695,-1762.019645,13397.727550
928.319210,-8734.430116,-3753.867940,10658.965565
928.319539,-8882.471304,-5209.449386,7698.141797
928.319869,-6217.729913,-6665.030833,5921.647536
928.320198,-2368.659014,-6358.592633,4885.359217
928.320528,1110.308913,-3753.867940,4737.318029
928.320858,4293.194464,612.876398,5921.647536
928.321187,5995.668130,6205.373534,7105.977043
928.321517,5699.585753,8886.707777,8586.388927
928.321846,4367.215058,8197.221829,11029.068536
928.322176,1628.453072,6894.859482,13545.768739
928.322505,-1776.494261,5975.544884,14285.974681
928.322835,-4737.318029,3524.039291,13915.871710
928.323164,-7402.059420,-229.828649,12287.418637
928.323494,-9178.553681,-5515.887586,9844.739029
928.323824,-7846.182985,-9346.365076,7994.224174
928.324153,-5995.668130,-9193.145976,7402.059420
928.324483,-3849.070898,-3907.087040,7031.956449
928.324812,-666.185348,-1072.533697,6291.750507
928.325142,3775.050304,229.828649,6217.729913
928.325471,7772.162391,2681.334243,7031.956449
928.325801,9770.718434,5056.230287,8808.450710
928.326130,8438.347739,8273.831378,11029.068536
928.326460,4959.379811,9959.241474,13101.645173
928.326789,1628.453072,7431.126331,14211.954086
928.327119,-1924.535449,2221.676944,15322.262999
928.327449,-5477.523971,-306.438199,14952.160028
928.327778,-8586.388927,-1838.629195,11029.068536
928.328108,-9992.780217,-5056.230287,7328.038826
928.328437,-8882.471304,-7048.078582,5699.585753
928.328767,-6439.791695,-7507.735880,5255.462188
928.329096,-3330.926739,-5132.839837,5699.585753
928.329426,-666.185348,-689.485948,6513.812290
928.329755,1702.473667,5362.668486,6217.729913
928.330085,3552.988522,7660.954980,6661.853478
928.330414,4811.338623,5286.058936,8290.306550
928.330744,4071.132681,5209.449386,11621.233289
928.331074,1184.329507,5822.325785,13767.830521
928.331403,-2442.679609,5898.935335,14730.098246
928.331733,-6439.791695,3907.087040,13989.892304
928.332062,-8364.327145,-1225.752797,11399.171507
928.332392,-7920.203579,-7354.516781,8660.409521
928.332721,-5107.421000,-9039.926876,7698.141797
928.333051,-2738.761985,-4366.744339,8512.368333
928.333380,-1036.288319,-1072.533697,7698.141797
928.333710,1702.473667,459.657299,6217.729913
928.334040,4959.379811,2298.286494,5403.503377
928.334369,7772.162391,3447.429741,7031.956449
928.334699,8512.368333,6511.811733,9844.739029
928.335028,5033.400406,9346.365076,12509.480420
928.335358,444.123565,8580.269578,13027.624579
928.335687,-3256.906145,3907.087040,12657.521608
928.336017,-5625.565159,0.000000,13397.727550
928.336346,-7698.141797,-2911.162892,12953.603985
928.336676,-10066.800811,-4749.792088,10881.027347
928.337005,-10658.965565,-5132.839837,8438.347739
928.337335,-8142.265362,-6128.763984,7254.018232
928.337665,-3627.009116,-4903.011187,5847.626942
928.337994,2220.617826,-1378.971896,5995.668130
928.338324,6069.688724,2451.505594,5921.647536
928.338653,7328.038826,7201.297681,5921.647536
928.338983,7402.059420,8350.440928,6957.935855
928.339312,6513.812290,7354.516781,10140.821405
928.339642,3108.864956,7354.516781,12805.562797
928.339971,-1406.391290,7277.907231,14285.974681
928.340301,-5403.503377,3830.477490,14508.036463
928.340630,-7846.182985,-459.657299,12361.439231
928.340960,-8438.347739,-5056.230287,9400.615463
928.341290,-7031.956449,-9269.755526,7698.141797
928.341619,-4367.215058,-7660.954980,7994.224174
928.341949,-2738.761985,-1991.848295,7550.100608
928.342278,888.247130,459.657299,6735.874072
928.342608,4589.276840,1072.533697,6143.709319
928.342937,7698.141797,3677.258390,6069.688724
928.343267,7994.224174,6511.811733,8364.327145
928.343596,6291.750507,7890.783629,11547.212695
928.343926,2294.638420,8886.707777,12509.480420
928.344256,-2146.597232,5745.716235,13175.665768
928.344585,-4959.379811,536.266849,14211.954086
928.344915,-7846.182985,-1991.848295,13027.624579
928.345244,-9326.594869,-4443.353888,10807.006753
928.345573,-9326.594869,-6052.154434,8364.327145
928.345903,-7328.038826,-6052.154434,7328.038826
928.346232,-4071.132681,-4213.525239,6439.791695
928.346562,1258.350101,-1608.800546,5255.462188
928.346891,5033.400406,1149.143247,5477.523971
928.347220,6809.894666,6741.640382,5477.523971
928.347550,6661.853478,7660.954980,7179.997637
928.347879,5477.523971,6358.592633,10362.883188
928.348209,2294.638420,6358.592633,13545.768739
928.348538,-2146.597232,6205.373534,15100.201217
928.348867,-6143.709319,3753.867940,15174.221811
928.349197,-8956.491898,229.828649,13323.706956
928.349526,-9326.594869,-4979.620737,10584.944971
928.349856,-7402.059420,-10112.460574,8586.388927
928.350185,-5033.400406,-7890.783629,7624.121203
928.350514,-3404.947333,-2528.115143,7105.977043
928.350844,0.000000,0.000000,6365.771101
928.351173,3849.070898,919.314598,6143.709319
928.351503,7328.038826,3370.820191,5995.668130
928.351832,9104.533087,5056.230287,7550.100608
928.352161,7920.203579,7354.516781,9844.739029
928.352491,3997.112087,8503.660028,12287.418637
928.352820,0.000000,6052.154434,13101.645173
928.353150,-3775.050304,1685.410096,13915.871710
928.353479,-6587.832884,-1838.629195,14211.954086
928.353808,-9030.512492,-3064.381992,12731.542202
928.354138,-10214.842000,-4673.182538,10288.862594
928.354467,-8586.388927,-5286.058936,7920.203579
928.354797,-4885.359217,-4979.620737,6217.729913
928.355126,0.000000,-3447.429741,4367.215058
928.355455,4589.276840,-689.485948,4293.194464
928.355785,6587.832884,2987.772442,6069.688724
928.356114,5773.606348,7584.345430,7179.997637
928.356444,3256.906145,8273.831378,8142.265362
928.356773,1998.556043,5745.716235,10807.006753
928.357102,0.000000,4519.963438,13323.706956
928.357432,-3701.029710,3447.429741,14508.036463
928.357761,-7105.977043,459.657299,13915.871710
928.358091,-9622.677246,-3370.820191,11917.315666
928.358420,-9918.759623,-5669.106685,9918.759623
928.358749,-7846.182985,-7048.078582,8734.430116
928.359079,-4293.194464,-4903.011187,8438.347739
928.359408,-592.164754,-1072.533697,7179.997637
928.359738,3404.947333,383.047749,6365.771101
928.360067,6957.935855,1838.629195,5995.668130
928.360396,8142.265362,4519.963438,6587.832884
928.360726,7550.100608,6665.030833,9474.636058
928.361055,4515.256246,7431.126331,11843.295072
928.361385,518.144159,7048.078582,13841.851115
928.361714,-3256.906145,4519.963438,14211.954086
928.362043,-6809.894666,383.047749,13249.686362
928.362373,-8290.306550,-3370.820191,11917.315666
928.362702,-9474.636058,-5286.058936,10510.924376
928.363032,-8808.450710,-5132.839837,9474.636058
928.363361,-6735.874072,-4903.011187,7772.162391
928.363691,-3108.864956,-2604.724693,5551.544565
928.364020,1776.494261,-766.095498,4663.297435
928.364349,5625.565159,2145.067394,4071.132681
928.364679,7254.018232,5592.497135,4811.338623
928.365008,6291.750507,5975.544884,7105.977043
928.365338,3849.070898,7048.078582,10807.006753
928.365667,148.041188,7354.516781,13471.748144
928.365996,-3701.029710,5975.544884,14952.160028
928.366326,-7254.018232,2604.724693,14211.954086
928.366655,-8808.450710,-1685.410096,12361.439231
928.366985,-8142.265362,-6435.202183,10955.047942
928.367314,-5995.668130,-7814.174080,9770.718434
928.367643,-4145.153275,-3524.039291,7550.100608
928.367973,-740.205942,-842.705048,5403.503377
928.368302,4071.132681,0.000000,4737.318029
928.368632,8142.265362,1685.410096,4885.359217
928.368961,10510.924376,4596.572988,6291.750507
928.369290,9548.656652,6818.249932,8290.306550
928.369620,5625.565159,9193.145976,10807.006753
928.369949,888.247130,7354.516781,13989.892304
928.370279,-3256.906145,2528.115143,16580.613101
928.370608,-7402.059420,1149.143247,16432.571912
928.370937,-9474.636058,-842.705048,12953.603985
928.371267,-9474.636058,-4519.963438,9400.615463
928.371596,-7328.038826,-6358.592633,6957.935855
928.371926,-4219.173869,-6052.154434,5255.462188
928.372255,-666.185348,-5056.230287,4145.153275
928.372584,2590.720797,-1455.581446,5699.585753
928.372914,4663.297435,5592.497135,6883.915261
928.373243,4885.359217,9193.145976,6809.894666
928.373573,4441.235652,6971.469032,8142.265362
928.373902,3108.864956,5209.449386,11325.150913
928.374231,518.144159,4903.011187,13989.892304
928.374561,-2960.823768,4826.401637,14878.139434
928.374890,-7105.977043,2681.334243,14211.954086
928.375220,-9770.718434,-1608.800546,12213.398043
928.375549,-9918.759623,-7507.735880,10214.842000
928.375878,-7105.977043,-8810.098227,9326.594869
928.376208,-4441.235652,-4443.353888,7994.224174
928.376537,-888.247130,-612.876398,6143.709319
928.376867,3404.947333,0.000000,4737.318029
928.377196,7328.038826,1302.362347,4515.256246
928.377525,10362.883188,3294.210641,5847.626942
928.377855,9918.759623,6435.202183,8512.368333
928.378184,6069.688724,10035.851024,11399.171507
928.378514,1184.329507,9039.926876,13027.624579
928.378843,-2886.803174,3064.381992,14730.098246
928.379172,-6513.812290,-229.828649,15396.283594
928.379502,-9474.636058,-919.314598,13101.645173
928.379831,-11251.130318,-4519.963438,9844.739029
928.380161,-10658.965565,-6665.030833,8364.327145
928.380490,-8438.347739,-7201.297681,6957.935855
928.380819,-4367.215058,-6052.154434,5329.482782
928.381149,1036.288319,-4060.306139,4737.318029
928.381478,5255.462188,612.876398,6587.832884
928.381808,7328.038826,5362.668486,7476.080014
928.382137,6809.894666,7354.516781,8290.306550
928.382466,5625.565159,7124.688131,9844.739029
928.382796,3478.967927,6818.249932,12435.459826
928.383125,296.082377,6128.763984,14137.933492
928.383455,-3330.926739,3600.648841,14804.118840
928.383784,-7179.997637,-612.876398,13619.789333
928.384113,-8882.471304,-5592.497135,11843.295072
928.384443,-8512.368333,-7660.954980,10214.842000
928.384772,-6143.709319,-5439.278036,8660.409521
928.385102,-3701.029710,-3447.429741,6883.915261
928.385431,296.082377,-1991.848295,4663.297435
928.385760,4737.318029,-612.876398,4071.132681
928.386090,8068.244768,1915.238745,5329.482782
928.386419,8142.265362,5286.058936,7994.224174
928.386749,5107.421000,9499.584175,10510.924376
928.387078,740.205942,10265.679673,12657.521608
928.387407,-2960.823768,6205.373534,14137.933492
928.387737,-5477.523971,995.924147,15100.201217
928.388066,-7698.141797,-995.924147,14285.974681
928.388396,-10066.800811,-2834.553343,11029.068536
928.388725,-9622.677246,-5592.497135,7920.203579
928.389054,-7402.059420,-6281.983084,6809.894666
928.389384,-3478.967927,-5132.839837,5329.482782
928.389713,1258.350101,-2528.115143,4811.338623
928.390043,5107.421000,995.924147,5699.585753
928.390372,7105.977043,7584.345430,5477.523971
928.390701,7031.956449,8580.269578,6735.874072
928.391031,6365.771101,6818.249932,9696.697840
928.391360,3108.864956,7277.907231,13101.645173
928.391690,-1110.308913,6971.469032,14508.036463
928.392019,-5551.544565,4673.182538,14656.077652
928.392348,-8660.409521,1072.533697,13989.892304
928.392678,-9844.739029,-4136.915689,12213.398043
928.393007,-8364.327145,-9422.974625,10066.800811
928.393337,-5773.606348,-7354.516781,8734.430116
928.393666,-3330.926739,-1685.410096,6069.688724
928.393995,888.247130,-1149.143247,4367.215058
928.394325,5255.462188,-383.047749,4071.132681
928.394654,8734.430116,2528.115143,5403.503377
928.394984,9844.739029,5822.325785,8216.285956
928.395313,8142.265362,9422.974625,10658.965565
928.395642,3478.967927,11184.994271,12509.480420
928.395972,-740.205942,6894.859482,14211.954086
928.396301,-3997.112087,1072.533697,15618.345376
928.396631,-6587.832884,-153.219100,14730.098246
928.396960,-8586.388927,-1991.848295,11547.212695
928.397289,-8956.491898,-5439.278036,7624.121203
928.397619,-7402.059420,-6511.811733,6069.688724
928.397948,-4071.132681,-5975.544884,4663.297435
928.398278,592.164754,-4136.915689,3701.029710
928.398607,4515.256246,-153.219100,5403.503377
928.398936,5847.626942,5822.325785,7105.977043
928.399266,5551.544565,9346.365076,8142.265362
928.399595,4441.235652,7737.564530,9548.656652
928.399925,2664.741391,6741.640382,12065.356855
928.400254,0.000000,6358.592633,13841.851115
928.400584,-3552.988522,3907.087040,14285.974681
928.400913,-7328.038826,612.876398,13693.809927
928.401242,-9844.739029,-3983.696590,12213.398043
928.401572,-9178.553681,-7660.954980,10140.821405
928.401901,-6661.853478,-8120.612279,8808.450710
928.402231,-3997.112087,-4903.011187,7105.977043
928.402560,-222.061783,-1838.629195,4737.318029
928.402889,4071.132681,-995.924147,4737.318029
928.403219,8142.265362,2145.067394,5921.647536
928.403548,9548.656652,5898.935335,8216.285956
928.403878,7772.162391,8503.660028,10881.027347
928.404207,3627.009116,10418.898773,12805.562797
928.404536,-222.061783,7431.126331,13915.871710
928.404866,-2664.741391,2145.067394,15100.201217
928.405195,-5625.565159,-459.657299,14656.077652
928.405525,-8068.244768,-2528.115143,12435.459826
928.405854,-9400.615463,-5286.058936,9252.574275
928.406183,-8734.430116,-6588.421283,7254.018232
928.406513,-6291.750507,-6128.763984,5403.503377
928.406842,-1998.556043,-4366.744339,4071.132681
928.407172,2886.803174,-1915.238745,4811.338623
928.407501,5847.626942,3217.601092,7105.977043
928.407830,6217.729913,7737.564530,7772.162391
928.408160,4367.215058,8656.879127,8660.409521
928.408489,3034.844362,8120.612279,10955.047942
928.408819,1036.288319,6894.859482,13249.686362
928.409148,-1850.514855,5056.230287,13989.892304
928.409477,-5181.441594,1532.190996,12879.583391
928.409807,-7476.080014,-2451.505594,11325.150913
928.410136,-8438.347739,-6511.811733,9474.636058
928.410466,-7105.977043,-8503.660028,9474.636058
928.410795,-5107.421000,-4903.011187,9030.512492
928.411124,-2442.679609,-1608.800546,6069.688724
928.411454,1258.350101,-153.219100,4737.318029
928.411783,6069.688724,995.924147,5699.585753
928.412113,9252.574275,3753.867940,7328.038826
928.412442,8734.430116,6052.154434,9326.594869
928.412771,5329.482782,8810.098227,11473.192101
928.413101,1258.350101,8886.707777,13545.768739
928.413430,-2516.700203,3907.087040,15692.365970
928.413760,-5995.668130,766.095498,15396.283594
928.414089,-8660.409521,-919.314598,12213.398043
928.414418,-9030.512492,-4979.620737,8586.388927
928.414748,-7105.977043,-7201.297681,6587.832884
928.415077,-5403.503377,-6588.421283,5477.523971
928.415407,-2590.720797,-5286.058936,4737.318029
928.415736,888.247130,-2604.724693,6439.791695
928.416065,2738.761985,4596.572988,7105.977043
928.416395,3923.091493,9652.803275,7031.956449
928.416724,5403.503377,7048.078582,8438.347739
928.417054,4737.318029,5975.544884,11917.315666
928.417383,1332.370696,6741.640382,13989.892304
928.417712,-2738.761985,6052.154434,14508.036463
928.418042,-6883.915261,2834.553343,13767.830521
928.418371,-9252.574275,-1149.143247,13027.624579
928.418701,-9474.636058,-7507.735880,11695.253884
928.419030,-7624.121203,-9806.022374,9548.656652
928.419359,-4737.318029,-5132.839837,6957.935855
928.419689,-1110.308913,-2681.334243,4589.276840
928.420018,3404.947333,-459.657299,3404.947333
928.420348,7254.018232,842.705048,3627.009116
928.420677,10288.862594,3753.867940,5995.668130
928.421006,10140.821405,7507.735880,9252.574275
928.421336,6587.832884,12487.356617,12065.356855
928.421665,2516.700203,11874.480219,14211.954086
928.421995,-1258.350101,5132.839837,14804.118840
928.422324,-4589.276840,306.438199,15396.283594
928.422653,-7105.977043,-1302.362347,13323.706956
928.422983,-9104.533087,-4443.353888,10140.821405
928.423312,-9844.739029,-6358.592633,7179.997637
928.423642,-8364.327145,-6971.469032,4811.338623
928.423971,-4145.153275,-6128.763984,3256.906145
928.424300,1480.411884,-3983.696590,3997.112087
928.424630,5181.441594,1072.533697,7031.956449
928.424959,5477.523971,7277.907231,9178.553681
928.425289,4145.153275,10342.289223,9622.677246
928.425618,3552.988522,9346.365076,10658.965565
928.425947,2812.782580,8197.221829,12213.398043
928.426277,1036.288319,6052.154434,12583.501014
928.426606,-2220.617826,1455.581446,13175.665768
928.426936,-5403.503377,-3370.820191,13397.727550
928.427265,-8734.430116,-4903.011187,11917.315666
928.427594,-9474.636058,-5439.278036,10362.883188
928.427924,-6661.853478,-5745.716235,8438.347739
928.428253,-2442.679609,-3753.867940,6217.729913
928.428583,2738.761985,-2068.457845,4367.215058
928.428912,8290.306550,-919.314598,4219.173869
928.429241,10214.842000,3983.696590,6069.688724
928.429571,8956.491898,8580.269578,8808.450710
928.429900,4589.276840,11261.603821,11917.315666
928.430230,-148.041188,10342.289223,14211.954086
928.430559,-3627.009116,6741.640382,14656.077652
928.430888,-5699.585753,536.266849,14508.036463
928.431218,-7476.080014,-3677.258390,13027.624579
928.431547,-9548.656652,-6128.763984,9326.594869
928.431877,-9844.739029,-9346.365076,6587.832884
928.432206,-7402.059420,-8733.488677,5551.544565
928.432535,-4293.194464,-5515.887586,4367.215058
928.432865,592.164754,-2451.505594,4663.297435
928.433194,4885.359217,383.047749,7254.018232
928.433524,7402.059420,6128.763984,9252.574275
928.433853,7698.141797,10725.336972,9696.697840
928.434182,6513.812290,10342.289223,10436.903782
928.434512,4367.215058,8810.098227,11917.315666
928.434841,1332.370696,6588.421283,12583.501014
928.435171,-1850.514855,2068.457845,12287.418637
928.435500,-5033.400406,-2451.505594,12287.418637
928.435829,-8142.265362,-6358.592633,12435.459826
928.436159,-10658.965565,-7507.735880,10955.047942
928.436488,-9622.677246,-6665.030833,9400.615463
928.436818,-6513.812290,-4903.011187,7031.956449
928.437147,-1702.473667,-3064.381992,5107.421000
928.437477,3108.864956,-1225.752797,4811.338623
928.437806,7031.956449,1378.971896,6069.688724
928.438135,7846.182985,5286.058936,8660.409521
928.438465,5995.668130,9422.974625,10807.006753
928.438794,2960.823768,10265.679673,12953.603985
928.439124,-296.082377,6818.249932,13841.851115
928.439453,-2738.761985,1915.238745,13915.871710
928.439782,-5625.565159,-1149.143247,12953.603985
928.440112,-7772.162391,-3447.429741,10955.047942
928.440441,-8364.327145,-5286.058936,8808.450710
928.440771,-7476.080014,-6281.983084,7328.038826
928.441100,-5181.441594,-5286.058936,6069.688724
928.441429,-1258.350101,-3600.648841,5773.606348
928.441759,2590.720797,0.000000,6957.935855
928.442088,4515.256246,5286.058936,8290.306550
928.442418,5255.462188,8427.050478,8586.388927
928.442747,4589.276840,8120.612279,8660.409521
928.443076,4071.132681,6971.469032,10881.027347
928.443406,1702.473667,5975.544884,11991.336260
928.443735,-2072.576638,4213.525239,11843.295072
928.444065,-6365.771101,919.314598,11251.130318
928.444394,-9400.615463,-3140.991542,10732.986159
928.444723,-10362.883188,-6741.640382,10807.006753
928.445053,-8734.430116,-6741.640382,10362.883188
928.445382,-6439.791695,-3983.696590,8512.368333
928.445712,-2516.700203,-1991.848295,6587.832884
928.446041,2368.659014,-383.047749,5255.462188
928.446370,6735.874072,2374.896044,5625.565159
928.446700,9400.615463,4290.134789,7105.977043
928.447029,8660.409521,7354.516781,9770.718434
928.447359,5625.565159,10112.460574,11991.336260
928.447688,2294.638420,8580.269578,13989.892304
928.448018,-1036.288319,3294.210641,14359.995275
928.448347,-4663.297435,383.047749,13693.809927
928.448677,-7105.977043,-1378.971896,11991.336260
928.449006,-7920.203579,-4136.915689,9918.759623
928.449336,-7105.977043,-4826.401637,7550.100608
928.449665,-4959.379811,-5132.839837,5403.503377
928.449995,-888.247130,-3524.039291,4145.153275
928.450325,2886.803174,-1762.019645,5329.482782
928.450654,4737.318029,3294.210641,7550.100608
928.450984,4589.276840,7660.954980,8438.347739
928.451313,3552.988522,8044.002729,9400.615463
928.451643,2590.720797,7737.564530,10732.986159
928.451972,1110.308913,6588.421283,12583.501014
928.452302,-1554.432478,3830.477490,12361.439231
928.452631,-4737.318029,0.000000,12065.356855
928.452961,-7920.203579,-3907.087040,12435.459826
928.453290,-9992.780217,-4979.620737,11843.295072
928.453620,-9844.739029,-5209.449386,10955.047942
928.453950,-6587.832884,-3983.696590,8882.471304
928.454279,-1776.494261,-2221.676944,5995.668130
928.454609,3627.009116,-1915.238745,4293.194464
928.454938,8586.388927,229.828649,4737.318029
928.455268,10436.903782,3600.648841,6217.729913
928.455597,8290.306550,7124.688131,8956.491898
928.455927,4811.338623,9959.241474,11769.274478
928.456256,1406.391290,8656.879127,14063.912898
928.456586,-1702.473667,3600.648841,15248.242405
928.456915,-4737.318029,0.000000,14730.098246
928.457245,-7846.182985,-2451.505594,13249.686362
928.457575,-9622.677246,-3983.696590,10732.986159
928.457904,-9474.636058,-5745.716235,8438.347739
928.458234,-7254.018232,-5898.935335,6069.688724
928.458563,-3404.947333,-4749.792088,4367.215058
928.458893,1628.453072,-3983.696590,5033.400406
928.459222,4145.153275,1532.190996,7105.977043
928.459552,4515.256246,7277.907231,7624.121203
928.459881,4367.215058,7890.783629,7550.100608
928.460211,3849.070898,7507.735880,9400.615463
928.460540,2812.782580,5592.497135,11473.192101
928.460870,0.000000,4519.963438,12731.542202
928.461199,-3997.112087,1685.410096,11917.315666
928.461529,-7254.018232,-995.924147,11695.253884
928.461859,-9474.636058,-4903.011187,12065.356855
928.462188,-9030.512492,-7048.078582,12361.439231
928.462518,-7402.059420,-4213.525239,10658.965565
928.462847,-5033.400406,-2145.067394,7254.018232
928.463177,74.020594,-1378.971896,4737.318029
928.463506,5699.585753,-612.876398,4071.132681
928.463836,9474.636058,1608.800546,5329.482782
928.464165,9252.574275,4213.525239,7105.977043
928.464495,5921.647536,7890.783629,9844.739029
928.464824,2294.638420,9499.584175,12657.521608
928.465154,-1110.308913,5362.668486,14508.036463
928.465484,-4219.173869,995.924147,14730.098246
928.465813,-7031.956449,-1149.143247,13397.727550
928.466143,-8438.347739,-3677.258390,11251.130318
928.466472,-8882.471304,-4519.963438,9178.553681
928.466802,-7698.141797,-5056.230287,7402.059420
928.467131,-4737.318029,-5132.839837,6069.688724
928.467461,-962.267725,-2757.943793,5255.462188
928.467790,2812.782580,383.047749,6957.935855
928.468120,4071.132681,5056.230287,7476.080014
928.468449,3997.112087,7201.297681,8216.285956
928.468779,3997.112087,7048.078582,9844.739029
928.469109,3108.864956,6665.030833,11473.192101
928.469438,814.226536,5362.668486,11695.253884
928.469768,-2368.659014,842.705048,13101.645173
928.470097,-6143.709319,-2681.334243,15174.221811
928.470427,-9770.718434,-2298.286494,14656.077652
928.470756,-9844.739029,-4366.744339,11473.192101
928.471086,-5773.606348,-4290.134789,8142.265362
928.471415,-1628.453072,-2451.505594,4885.359217
928.471745,3404.947333,-2145.067394,1998.556043
928.472074,7994.224174,-1991.848295,2294.638420
928.472404,10140.821405,2451.505594,4885.359217
928.472733,9030.512492,8733.488677,9178.553681
928.473063,5255.462188,10725.336972,11843.295072
928.473393,1480.411884,10342.289223,12583.501014
928.473722,-1406.391290,5745.716235,13249.686362
928.474052,-3034.844362,-1685.410096,15026.180623
928.474381,-5625.565159,-2451.505594,15174.221811
928.474711,-10584.944971,-1378.971896,13249.686362
928.475040,-12361.439231,-4443.353888,10140.821405
928.475370,-10881.027347,-4979.620737,7624.121203
928.475699,-5773.606348,-4519.963438,4737.318029
928.476029,1184.329507,-3983.696590,2368.659014
928.476358,6217.729913,-3064.381992,3627.009116
928.476688,7328.038826,4596.572988,6291.750507
928.477018,5699.585753,9039.926876,7624.121203
928.477347,4367.215058,7890.783629,9400.615463
928.477677,2960.823768,8963.317327,11769.274478
928.478006,1036.288319,6588.421283,13397.727550
928.478336,-962.267725,2221.676944,13545.768739
928.478665,-3775.050304,-2298.286494,15100.201217
928.478995,-7624.121203,-3983.696590,15396.283594
928.479324,-10658.965565,-3370.820191,13027.624579
928.479654,-9918.759623,-3064.381992,10214.842000
928.479983,-5477.523971,-2068.457845,7179.997637
928.480313,-296.082377,-1762.019645,3701.029710
928.480643,4737.318029,-2911.162892,2738.761985
928.480972,7920.203579,153.219100,4293.194464
928.481302,7920.203579,5669.106685,7698.141797
928.481631,4811.338623,9346.365076,10658.965565
928.481961,1702.473667,9959.241474,11769.274478
928.482290,-370.102971,6281.983084,12509.480420
928.482620,-2368.659014,689.485948,13841.851115
928.482949,-4441.235652,-2911.162892,15248.242405
928.483279,-8142.265362,-1991.848295,13841.851115
928.483608,-10288.862594,-2757.943793,11399.171507
928.483938,-9178.553681,-4903.011187,9326.594869
928.484267,-5847.626942,-4136.915689,6291.750507
928.484597,-518.144159,-3447.429741,2738.761985
928.484927,5403.503377,-2834.553343,2886.803174
928.485256,8142.265362,1225.752797,6143.709319
928.485586,6957.935855,7584.345430,8068.244768
928.485915,4737.318029,8427.050478,9548.656652
928.486245,2886.803174,7890.783629,11103.089130
928.486574,444.123565,7431.126331,11917.315666
928.486904,-1924.535449,3753.867940,12361.439231
928.487233,-5107.421000,-1149.143247,13249.686362
928.487563,-8364.327145,-4290.134789,14359.995275
928.487892,-10955.047942,-4903.011187,13545.768739
928.488222,-10732.986159,-4903.011187,11029.068536
928.488552,-7254.018232,-3600.648841,8364.327145
928.488881,-2072.576638,-2834.553343,4737.318029
928.489211,3330.926739,-2528.115143,2442.679609
928.489540,8290.306550,-842.705048,2960.823768
928.489870,10584.944971,3600.648841,6291.750507
928.490199,8290.306550,8886.707777,10436.903782
928.490529,4145.153275,10878.556072,11917.315666
928.490858,1258.350101,7967.393179,13619.789333
928.491188,-1480.411884,2911.162892,14656.077652
928.491517,-4219.173869,-536.266849,15544.324782
928.491847,-7920.203579,-2298.286494,14582.057057
928.492176,-10362.883188,-3447.429741,11769.274478
928.492506,-10140.821405,-5286.058936,9474.636058
928.492836,-7550.100608,-5515.887586,6735.874072
928.493165,-3478.967927,-4826.401637,3701.029710
928.493495,1628.453072,-3983.696590,3256.906145
928.493824,5181.441594,0.000000,5329.482782
928.494154,5255.462188,6205.373534,7105.977043
928.494483,4367.215058,8580.269578,8586.388927
928.494813,3627.009116,8810.098227,10510.924376
928.495142,1702.473667,7431.126331,11991.336260
928.495472,-1036.288319,4903.011187,12583.501014
928.495801,-4441.235652,1302.362347,12361.439231
928.496131,-7772.162391,-842.705048,11843.295072
928.496461,-9622.677246,-4443.353888,12435.459826
928.496790,-9474.636058,-6818.249932,11917.315666
928.497120,-7624.121203,-4903.011187,10214.842000
928.497449,-4219.173869,-2757.943793,6883.915261
928.497779,814.226536,-1838.629195,4441.235652
928.498108,5847.626942,0.000000,3627.009116
928.498438,9770.718434,2911.162892,5477.523971
928.498767,9844.739029,4903.011187,8068.244768
928.499097,6809.894666,8580.269578,10807.006753
928.499426,2812.782580,9576.193725,13693.809927
928.499756,-740.205942,5439.278036,16358.551318
928.500086,-4737.318029,2145.067394,16284.530724
928.500415,-8142.265362,383.047749,13915.871710
928.500745,-8956.491898,-3294.210641,11547.212695
928.501074,-7920.203579,-5898.935335,8438.347739
928.501404,-5773.606348,-5362.668486,6217.729913
928.501733,-2664.741391,-4903.011187,3330.926739
928.502063,1258.350101,-4290.134789,3034.844362
928.502392,4145.153275,306.438199,5551.544565
928.502722,5181.441594,6665.030833,7698.141797
928.503051,4737.318029,9269.755526,9474.636058
928.503381,4145.153275,9652.803275,10807.006753
928.503710,2886.803174,9193.145976,12065.356855
928.504040,962.267725,5822.325785,11695.253884
928.504370,-2146.597232,306.438199,11917.315666
928.504699,-6217.729913,-3064.381992,14137.933492
928.505029,-10658.965565,-3447.429741,14359.995275
928.505358,-11917.315666,-3830.477490,12213.398043
928.505688,-9030.512492,-4596.572988,9326.594869
928.506017,-3404.947333,-3140.991542,5921.647536
928.506347,2368.659014,-3447.429741,2368.659014
928.506676,7772.162391,-2604.724693,1406.391290
928.507006,10658.965565,1225.752797,3923.091493
928.507335,9326.594869,7354.516781,8142.265362
928.507665,4663.297435,11644.651570,11621.233289
928.507995,888.247130,11414.822920,14285.974681
928.508324,-1480.411884,7967.393179,15470.304188
928.508654,-2886.803174,1838.629195,15988.448347
928.508983,-5477.523971,-2604.724693,14952.160028
928.509313,-9252.574275,-4290.134789,11843.295072
928.509642,-10955.047942,-6511.811733,9030.512492
928.509972,-9548.656652,-6205.373534,7179.997637
928.510301,-6217.729913,-5286.058936,4737.318029
928.510631,-444.123565,-4903.011187,3849.070898
928.510960,4145.153275,-2681.334243,5403.503377
928.511290,5699.585753,4213.525239,7254.018232
928.511620,5033.400406,8810.098227,8586.388927
928.511949,4367.215058,8886.707777,10288.862594
928.512279,2738.761985,9116.536426,11991.336260
928.512608,0.000000,7124.688131,12657.521608
928.512938,-1998.556043,2681.334243,12805.562797
928.513267,-4441.235652,-153.219100,11547.212695
928.513597,-7846.182985,-3294.210641,11621.233289
928.513926,-9548.656652,-7737.564530,11695.253884
928.514256,-9252.574275,-6741.640382,11177.109724
928.514585,-7179.997637,-2987.772442,8586.388927
928.514915,-1628.453072,-2604.724693,5551.544565
928.515244,3034.844362,-1302.362347,3775.050304
928.515574,7846.182985,1302.362347,4515.256246
928.515904,10436.903782,3753.867940,7105.977043
928.516233,7920.203579,6741.640382,9548.656652
928.516563,4145.153275,11491.432470,12509.480420
928.516892,222.061783,8810.098227,14878.139434
928.517222,-2960.823768,2911.162892,15026.180623
928.517551,-6069.688724,306.438199,12879.583391
928.517881,-7994.224174,-3830.477490,10288.862594
928.518210,-7624.121203,-6741.640382,8364.327145
928.518540,-7402.059420,-6128.763984,7105.977043
928.518869,-6291.750507,-4903.011187,5921.647536
928.519199,-2886.803174,-3830.477490,4811.338623
928.519529,666.185348,-1762.019645,5773.606348
928.519858,3552.988522,3524.039291,7698.141797
928.520188,4367.215058,6894.859482,9030.512492
928.520517,4145.153275,8427.050478,10362.883188
928.520847,3404.947333,8656.879127,11473.192101
928.521176,1554.432478,5669.106685,11547.212695
928.521506,-296.082377,1225.752797,13397.727550
928.521835,-3923.091493,-1991.848295,15174.221811
928.522165,-9030.512492,-1532.190996,13767.830521
928.522494,-10288.862594,-3294.210641,10436.903782
928.522824,-6809.894666,-6205.373534,7698.141797
928.523154,-2368.659014,-5515.887586,5403.503377
928.523483,2368.659014,-4290.134789,2812.782580
928.523813,5477.523971,-2757.943793,3108.864956
928.524142,7476.080014,2834.553343,5847.626942
928.524472,7179.997637,8044.002729,9770.718434
928.524801,5551.544565,10265.679673,12435.459826
928.525131,2738.761985,10342.289223,13693.809927
928.525460,814.226536,6281.983084,14656.077652
928.525790,-1184.329507,1072.533697,15766.386565
928.526119,-4663.297435,-766.095498,14804.118840
928.526449,-8586.388927,-2068.457845,12139.377449
928.526778,-10288.862594,-5822.325785,9474.636058
928.527108,-10140.821405,-5745.716235,7179.997637
928.527438,-6587.832884,-4826.401637,4293.194464
928.527767,-1184.329507,-4903.011187,2590.720797
928.528097,3775.050304,-2987.772442,3923.091493
928.528426,6365.771101,2757.943793,6513.812290
928.528756,5921.647536,7431.126331,7550.100608
928.529085,4737.318029,8733.488677,9622.677246
928.529415,3404.947333,10878.556072,11695.253884
928.529744,1332.370696,8810.098227,12805.562797
928.530074,444.123565,3447.429741,13545.768739
928.530403,-2294.638420,-2451.505594,14804.118840
928.530733,-6069.688724,-3217.601092,14582.057057
928.531063,-10658.965565,-3524.039291,11325.150913
928.531392,-10436.903782,-5056.230287,8882.471304
928.531722,-6735.874072,-3753.867940,6439.791695
928.532051,-2220.617826,-3064.381992,2886.803174
928.532381,3404.947333,-3677.258390,1924.535449
928.532710,7550.100608,-919.314598,4737.318029
928.533040,7402.059420,6588.421283,8512.368333
928.533369,4737.318029,10112.460574,10658.965565
928.533699,2812.782580,10418.898773,12213.398043
928.534028,888.247130,9422.974625,12361.439231
928.534358,0.000000,3524.039291,13693.809927
928.534688,-2146.597232,-2987.772442,15544.324782
928.535017,-6809.894666,-2298.286494,14359.995275
928.535347,-10732.986159,-3294.210641,11843.295072
928.535676,-10807.006753,-6128.763984,9326.594869
928.536006,-8068.244768,-4903.011187,7031.956449
928.536335,-2960.823768,-3983.696590,3552.988522
928.536665,3404.947333,-4749.792088,2960.823768
928.536994,7105.977043,-536.266849,5255.462188
928.537324,7476.080014,7431.126331,8068.244768
928.537653,5773.606348,9576.193725,9252.574275
928.537983,4367.215058,9806.022374,11473.192101
928.538312,1406.391290,10495.508323,13101.645173
928.538642,-592.164754,6205.373534,12953.603985
928.538972,-2664.741391,0.000000,12361.439231
928.539301,-5699.585753,-3983.696590,12657.521608
928.539631,-9548.656652,-5822.325785,12139.377449
928.539960,-10807.006753,-6435.202183,10510.924376
928.540290,-8660.409521,-6435.202183,8734.430116
928.540619,-4959.379811,-3370.820191,5403.503377
928.540949,222.061783,-1915.238745,2442.679609
928.541278,6587.832884,-1455.581446,3478.967927
928.541608,10066.800811,2528.115143,6439.791695
928.541937,9104.533087,8656.879127,9474.636058
928.542267,6291.750507,11338.213370,11399.171507
928.542597,3775.050304,10418.898773,13323.706956
928.542926,888.247130,6665.030833,13989.892304
928.543256,-2220.617826,689.485948,14878.139434
928.543585,-5995.668130,-2451.505594,14359.995275
928.543915,-9178.553681,-3600.648841,11991.336260
928.544244,-10140.821405,-5669.106685,9474.636058
928.544574,-8808.450710,-7201.297681,7698.141797
928.544903,-5625.565159,-5439.278036,4071.132681
928.545233,-592.164754,-4060.306139,2664.741391
928.545562,3627.009116,-1762.019645,4737.318029
928.545892,5625.565159,4519.963438,7698.141797
928.546221,4811.338623,8733.488677,8956.491898
928.546551,3775.050304,9039.926876,9992.780217
928.546880,2442.679609,8963.317327,11843.295072
928.547210,296.082377,6818.249932,12731.542202
928.547539,-1924.535449,2451.505594,11547.212695
928.547869,-5107.421000,-2604.724693,11843.295072
928.548198,-8734.430116,-6128.763984,12435.459826
928.548528,-11325.150913,-5822.325785,12361.439231
928.548857,-10658.965565,-5592.497135,10362.883188
928.549187,-7105.977043,-4290.134789,7698.141797
928.549516,-1776.494261,-3064.381992,4737.318029
928.549846,3997.112087,-2451.505594,3552.988522
928.550175,8882.471304,689.485948,4885.359217
928.550505,9992.780217,5132.839837,8216.285956
928.550834,7105.977043,10418.898773,10658.965565
928.551164,4145.153275,11338.213370,12657.521608
928.551493,1332.370696,7277.907231,14063.912898
928.551823,-1258.350101,2528.115143,14656.077652
928.552152,-5033.400406,-995.924147,14211.954086
928.552482,-8290.306550,-3064.381992,12065.356855
928.552811,-9548.656652,-5209.449386,9918.759623
928.553141,-8734.430116,-6128.763984,8068.244768
928.553470,-6513.812290,-5975.544884,5477.523971
928.553800,-1480.411884,-4673.182538,3627.009116
928.554129,3404.947333,-2221.676944,4737.318029
928.554459,5477.523971,3753.867940,7031.956449
928.554788,5995.668130,8427.050478,8660.409521
928.555118,5773.606348,9346.365076,9104.533087
928.555447,4885.359217,9729.412825,11325.150913
928.555777,2442.679609,7890.783629,11917.315666
928.556106,-740.205942,3600.648841,11843.295072
928.556436,-4515.256246,-2757.943793,13397.727550
928.556765,-8364.327145,-3907.087040,14359.995275
928.557095,-12065.356855,-3983.696590,13027.624579
928.557424,-10732.986159,-5592.497135,10362.883188
928.557754,-6291.750507,-4443.353888,7179.997637
928.558084,-222.061783,-3447.429741,3552.988522
928.558413,6143.709319,-2451.505594,1332.370696
928.558743,10584.944971,153.219100,2664.741391
928.559072,11177.109724,6511.811733,6883.915261
928.559402,7550.100608,11644.651570,10732.986159
928.559731,3627.009116,12410.747068,13249.686362
928.560061,814.226536,10648.727422,14063.912898
928.560390,-1554.432478,3830.477490,14434.015869
928.560720,-4071.132681,-2451.505594,15174.221811
928.561049,-8586.388927,-3600.648841,13545.768739
928.561379,-11843.295072,-5286.058936,10955.047942
928.561708,-11547.212695,-6511.811733,8882.471304
928.562038,-8734.430116,-4903.011187,6661.853478
928.562367,-2738.761985,-4060.306139,3923.091493
928.562697,3034.844362,-3677.258390,3923.091493
928.563026,5995.668130,995.924147,5329.482782
928.563356,6587.832884,8427.050478,7328.038826
928.563685,5625.565159,10418.898773,9030.512492
928.564015,3997.112087,9806.022374,11029.068536
928.564344,1554.432478,9116.536426,12805.562797
928.564674,-1332.370696,4596.572988,12509.480420
928.565003,-3997.112087,-306.438199,11547.212695
928.565333,-7179.997637,-3830.477490,12065.356855
928.565662,-9474.636058,-7277.907231,13323.706956
928.565992,-10510.924376,-6971.469032,12583.501014
928.566321,-9178.553681,-4673.182538,10288.862594
928.566651,-4219.173869,-2528.115143,6217.729913
928.566980,1998.556043,-1762.019645,3849.070898
928.567310,7254.018232,612.876398,3849.070898
928.567639,11103.089130,3447.429741,5847.626942
928.567969,9622.677246,6511.811733,8290.306550
928.568298,5995.668130,10801.946522,11177.109724
928.568628,1850.514855,9116.536426,13989.892304
928.568957,-1628.453072,3830.477490,14952.160028
928.569287,-5033.400406,536.266849,14359.995275
928.569616,-7402.059420,-3447.429741,13027.624579
928.569946,-8660.409521,-5515.887586,11029.068536
928.570275,-8882.471304,-5822.325785,9178.553681
928.570605,-7328.038826,-5669.106685,7550.100608
928.570934,-4071.132681,-4060.306139,4737.318029
928.571264,444.123565,-1685.410096,3256.906145
928.571593,4811.338623,1608.800546,5551.544565
928.571923,6809.894666,5209.449386,8068.244768
928.572252,5181.441594,8963.317327,9178.553681
928.572582,3775.050304,9576.193725,9622.677246
928.572911,2442.679609,6741.640382,10807.006753
928.573241,296.082377,2604.724693,13027.624579
928.573570,-3552.988522,-1608.800546,14582.057057
928.573900,-8290.306550,-2987.772442,14211.954086
928.574229,-11399.171507,-3140.991542,11547.212695
928.574559,-9770.718434,-4903.011187,9622.677246
928.574888,-5995.668130,-5209.449386,7994.224174
928.575218,-1850.514855,-3753.867940,5107.421000
928.575547,2812.782580,-2374.896044,2886.803174
928.575877,6735.874072,919.314598,3627.009116
928.576206,8882.471304,5592.497135,6883.915261
928.576536,7328.038826,8503.660028,9770.718434
928.576865,3997.112087,9499.584175,11843.295072
928.577195,1110.308913,8656.879127,13027.624579
928.577524,-370.102971,4366.744339,14211.954086
928.577854,-2664.741391,-1915.238745,15618.345376
928.578183,-7105.977043,-3140.991542,15174.221811
928.578513,-11547.212695,-4366.744339,12879.583391
928.578842,-12065.356855,-5515.887586,10288.862594
928.579172,-9326.594869,-4749.792088,8364.327145
928.579501,-4145.153275,-2834.553343,5255.462188
928.579831,1480.411884,-3217.601092,2664.741391
928.580160,6439.791695,-1532.190996,3478.967927
928.580490,8290.306550,4903.011187,5995.668130
928.580819,7105.977043,9346.365076,8364.327145
928.581149,5181.441594,10035.851024,9992.780217
928.581478,3182.885551,9652.803275,10658.965565
928.581808,1480.411884,4826.401637,12879.583391
928.582137,-814.226536,-1915.238745,15396.283594
928.582467,-6069.688724,-1762.019645,15470.304188
928.582796,-11177.109724,-1915.238745,13619.789333
928.583126,-11843.295072,-3830.477490,11547.212695
928.583455,-9548.656652,-4136.915689,9400.615463
928.583785,-4589.276840,-2604.724693,5255.462188
928.584114,1480.411884,-4060.306139,2072.576638
928.584444,6735.874072,-2451.505594,2368.659014
928.584773,8882.471304,4749.792088,5477.523971
928.585103,8068.244768,7890.783629,7846.182985
928.585432,6439.791695,8963.317327,9770.718434
928.585762,3404.947333,10495.508323,10881.027347
928.586091,888.247130,6281.983084,13323.706956
928.586421,-1628.453072,0.000000,15544.324782
928.586750,-6069.688724,-1378.971896,15692.365970
928.587080,-10362.883188,-2451.505594,13545.768739
928.587409,-11325.150913,-4903.011187,11251.130318
928.587739,-9622.677246,-5515.887586,9474.636058
928.588068,-5921.647536,-3370.820191,5625.565159
928.588398,74.020594,-3677.258390,2072.576638
928.588727,6069.688724,-2451.505594,2368.659014
928.589057,8882.471304,3370.820191,5847.626942
928.589386,7476.080014,7507.735880,8586.388927
928.589716,4441.235652,9729.412825,9992.780217
928.590045,1998.556043,11031.775171,12139.377449
928.590375,-444.123565,8120.612279,13693.809927
928.590704,-2590.720797,3600.648841,12879.583391
928.591034,-5033.400406,-2528.115143,13619.789333
928.591363,-8142.265362,-6128.763984,13471.748144
928.591693,-11251.130318,-5822.325785,12583.501014
928.592022,-11621.233289,-4903.011187,11177.109724
928.592352,-7846.182985,-4213.525239,8142.265362
928.592681,-2664.741391,-2221.676944,4885.359217
928.593011,3775.050304,-1455.581446,2812.782580
928.593340,9622.677246,76.609550,3478.967927
928.593670,11325.150913,4826.401637,5477.523971
928.593999,8956.491898,8886.707777,8808.450710
928.594329,4737.318029,9806.022374,12361.439231
928.594658,962.267725,7660.954980,15026.180623
928.594988,-2886.803174,4519.963438,15988.448347
928.595317,-6365.771101,0.000000,15396.283594
928.595647,-8068.244768,-2987.772442,13471.748144
928.595976,-8882.471304,-5209.449386,10807.006753
928.596306,-7328.038826,-6665.030833,8586.388927
928.596635,-5107.421000,-5592.497135,5181.441594
928.596965,-1628.453072,-3830.477490,2516.700203
928.597294,2664.741391,-1378.971896,2590.720797
928.597624,5477.523971,1685.410096,6809.894666
928.597953,5551.544565,7354.516781,9030.512492
928.598283,3923.091493,10265.679673,9474.636058
928.598612,2590.720797,9116.536426,10807.006753
928.598942,592.164754,6741.640382,11325.150913
928.599271,-1850.514855,1991.848295,11843.295072
928.599601,-4959.379811,-3370.820191,13471.748144
928.599930,-8660.409521,-4136.915689,13767.830521
928.600260,-12213.398043,-3753.867940,12657.521608
928.600589,-11399.171507,-4903.011187,10732.986159
928.600919,-7254.018232,-4749.792088,8586.388927
928.601248,-1406.391290,-3064.381992,5181.441594
928.601578,4515.256246,-2451.505594,2516.700203
928.601907,8956.491898,-459.657299,3108.864956
928.602237,10510.924376,5439.278036,6069.688724
928.602566,7624.121203,8273.831378,9400.615463
928.602896,4811.338623,9652.803275,12583.501014
928.603225,1924.535449,9116.536426,13841.851115
928.603555,-518.144159,4673.182538,15100.201217
928.603884,-3997.112087,-1378.971896,15544.324782
928.604214,-8512.368333,-2681.334243,14508.036463
928.604543,-11843.295072,-4903.011187,12065.356855
928.604873,-11177.109724,-5822.325785,9696.697840
928.605202,-8364.327145,-5669.106685,7179.997637
928.605532,-3701.029710,-3907.087040,4145.153275
928.605861,1776.494261,-3524.039291,3256.906145
928.606191,5329.482782,-766.095498,4219.173869
928.606520,6809.894666,6281.983084,6365.771101
928.606850,5921.647536,9193.145976,9104.533087
928.607179,4293.194464,10265.679673,10881.027347
928.607509,1184.329507,9269.755526,12879.583391
928.607838,-1480.411884,5975.544884,11917.315666
928.608168,-3256.906145,689.485948,12287.418637
928.608497,-5699.585753,-4136.915689,13841.851115
928.608827,-9326.594869,-4673.182538,14434.015869
928.609156,-11547.212695,-4596.572988,12213.398043
928.609486,-9178.553681,-4290.134789,9178.553681
928.609815,-3256.906145,-2834.553343,5181.441594
928.610145,2812.782580,-2145.067394,2442.679609
928.610474,8808.450710,-1225.752797,2368.659014
928.610804,11325.150913,2987.772442,4737.318029
928.611133,9844.739029,8733.488677,8364.327145
928.611463,6291.750507,12487.356617,10658.965565
928.611792,2960.823768,10572.117872,13545.768739
928.612122,-370.102971,6128.763984,14804.118840
928.612451,-3775.050304,459.657299,15100.201217
928.612781,-7328.038826,-2528.115143,13693.809927
928.613110,-9622.677246,-3983.696590,11843.295072
928.613440,-10436.903782,-6128.763984,9770.718434
928.613769,-8956.491898,-6052.154434,7698.141797
928.614099,-5255.462188,-4749.792088,4219.173869
928.614428,740.205942,-3600.648841,2886.803174
928.614758,5699.585753,-612.876398,4737.318029
928.615087,6291.750507,5745.716235,6735.874072
928.615417,5921.647536,9576.193725,8660.409521
928.615746,4811.338623,9652.803275,10214.842000
928.616076,2516.700203,9193.145976,12509.480420
928.616405,-592.164754,7124.688131,13915.871710
928.616735,-3330.926739,1991.848295,12583.501014
928.617064,-6365.771101,-2681.334243,12361.439231
928.617394,-9030.512492,-5669.106685,12435.459826
928.617723,-9992.780217,-7124.688131,11769.274478
928.618053,-8660.409521,-6435.202183,9844.739029
928.618382,-5551.544565,-3753.867940,6883.915261
928.618712,-592.164754,-2068.457845,4145.153275
928.619041,5107.421000,-766.095498,3330.926739
928.619371,9844.739029,1838.629195,4811.338623
928.619700,10584.944971,5745.716235,7994.224174
928.620030,7105.977043,9729.412825,11029.068536
928.620359,2960.823768,10725.336972,13323.706956
928.620689,0.000000,6588.421283,15322.262999
928.621018,-3182.885551,1991.848295,16136.489536
928.621348,-7328.038826,-1149.143247,14952.160028
928.621677,-9696.697840,-3677.258390,11917.315666
928.622007,-9770.718434,-6281.983084,9252.574275
928.622336,-8290.306550,-6741.640382,6883.915261
928.622666,-5181.441594,-6128.763984,4737.318029
928.622995,-740.205942,-4290.134789,3108.864956
928.623325,2664.741391,-689.485948,3997.112087
928.623654,4959.379811,4290.134789,6735.874072
928.623984,4737.318029,8197.221829,8956.491898
928.624313,3849.070898,9806.022374,10362.883188
928.624643,2960.823768,8963.317327,12139.377449
928.624972,592.164754,6665.030833,12287.418637
928.625302,-1258.350101,2298.286494,11843.295072
928.625631,-4367.215058,-3370.820191,13027.624579
928.625961,-8734.430116,-5209.449386,13323.706956
928.626290,-11547.212695,-4596.572988,11769.274478
928.626620,-9918.759623,-5209.449386,9548.656652
928.626949,-5255.462188,-4136.915689,7031.956449
928.627279,0.000000,-2911.162892,4071.132681
928.627608,5033.400406,-2374.896044,2442.679609
928.627938,9104.533087,459.657299,4145.153275
928.628267,9770.718434,6358.592633,8142.265362
928.628597,6291.750507,10648.727422,11695.253884
928.628926,2442.679609,11568.042020,13471.748144
928.629256,-296.082377,8427.050478,13545.768739
928.629585,-1702.473667,1225.752797,15026.180623
928.629915,-4367.215058,-3140.991542,15248.242405
928.630244,-8586.388927,-3524.039291,13175.665768
928.630574,-10732.986159,-5745.716235,10436.903782
928.630903,-10362.883188,-6665.030833,8068.244768
928.631233,-7179.997637,-5056.230287,6069.688724
928.631562,-1258.350101,-4060.306139,3701.029710
928.631892,4367.215058,-2451.505594,3478.967927
928.632221,7105.977043,2298.286494,4811.338623
928.632551,7698.141797,8810.098227,7624.121203
928.632880,6513.812290,10189.070123,9770.718434
928.633210,4441.235652,10648.727422,11843.295072
928.633539,1036.288319,7814.174080,13841.851115
928.633869,-2294.638420,3217.601092,15174.221811
928.634198,-5699.585753,0.000000,13841.851115
928.634528,-8882.471304,-3524.039291,12361.439231
928.634857,-10362.883188,-6358.592633,9992.780217
928.635187,-9178.553681,-7354.516781,8956.491898
928.635516,-5921.647536,-6435.202183,7105.977043
928.635846,-1480.411884,-3294.210641,4293.194464
928.636175,3552.988522,-536.266849,3182.885551
928.636505,7772.162391,2451.505594,5181.441594
928.636834,10140.821405,6588.421283,7846.182985
928.637164,8734.430116,10035.851024,10214.842000
928.637493,5921.647536,12257.527968,11621.233289
928.637823,3330.926739,9269.755526,13545.768739
928.638152,0.000000,4136.915689,15248.242405
928.638482,-4515.256246,-383.047749,15174.221811
928.638811,-8956.491898,-2757.943793,13101.645173
928.639141,-11103.089130,-5209.449386,10140.821405
928.639470,-10658.965565,-7048.078582,8512.368333
928.639800,-8660.409521,-6281.983084,6365.771101
928.640129,-4145.153275,-4519.963438,3256.906145
928.640459,1406.391290,-4060.306139,2442.679609
928.640788,5699.585753,995.924147,4885.359217
928.641118,6439.791695,7354.516781,7698.141797
928.641447,5033.400406,9422.974625,9548.656652
928.641777,3478.967927,10878.556072,11325.150913
928.642106,1184.329507,9729.412825,12731.542202
928.642436,-666.185348,5898.935335,13397.727550
928.642765,-2886.803174,459.657299,12435.459826
928.643095,-6291.750507,-3370.820191,12139.377449
928.643424,-9474.636058,-6588.421283,11473.192101
928.643754,-10214.842000,-7354.516781,11325.150913
928.644083,-8808.450710,-4979.620737,9992.780217
928.644413,-5033.400406,-3447.429741,7105.977043
928.644742,148.041188,-1532.190996,4737.318029
928.645072,6217.729913,306.438199,4441.235652
928.645401,10362.883188,2987.772442,5921.647536
928.645731,10140.821405,6128.763984,8512.368333
928.646061,6661.853478,10342.289223,11029.068536
928.646390,3034.844362,10035.851024,13989.892304
928.646720,222.061783,5132.839837,15248.242405
928.647049,-3552.988522,1378.971896,15174.221811
928.647379,-6735.874072,-1072.533697,13101.645173
928.647708,-8512.368333,-5286.058936,10436.903782
928.648038,-8364.327145,-6818.249932,7994.224174
928.648368,-7550.100608,-7124.688131,5995.668130
928.648697,-4737.318029,-5439.278036,4145.153275
928.649027,-296.082377,-3140.991542,4145.153275
928.649356,3701.029710,842.705048,6587.832884
928.649686,5329.482782,5745.716235,8364.327145
928.650015,5699.585753,9039.926876,9326.594869
928.650345,4885.359217,9346.365076,10066.800811
928.650675,3256.906145,8656.879127,11325.150913
928.651004,370.102971,5439.278036,11991.336260
928.651334,-2368.659014,-612.876398,13249.686362
928.651663,-6365.771101,-2528.115143,13767.830521
928.651993,-10658.965565,-3370.820191,12583.501014
928.652322,-11251.130318,-5745.716235,10510.924376
928.652652,-7994.224174,-6281.983084,8882.471304
928.652981,-3552.988522,-4443.353888,5995.668130
928.653311,1850.514855,-3064.381992,3182.885551
928.653641,6439.791695,-1072.533697,3108.864956
928.653970,9326.594869,3907.087040,5551.544565
928.654300,8882.471304,7737.564530,8808.450710
928.654629,5995.668130,9806.022374,11991.336260
928.654959,2516.700203,10878.556072,13619.789333
928.655288,222.061783,7048.078582,14285.974681
928.655618,-2294.638420,76.609550,15692.365970
928.655948,-6587.832884,-2451.505594,14508.036463
928.656277,-10214.842000,-4366.744339,11991.336260
928.656607,-10881.027347,-6894.859482,9696.697840
928.656936,-9622.677246,-6128.763984,7994.224174
928.657266,-6735.874072,-4366.744339,5625.565159
928.657595,-1258.350101,-3983.696590,4071.132681
928.657925,3775.050304,-1915.238745,4515.256246
928.658255,5995.668130,4519.963438,6365.771101
928.658584,6439.791695,8044.002729,8364.327145
928.658914,5255.462188,9346.365076,9474.636058
928.659243,3627.009116,9806.022374,11325.150913
928.659573,814.226536,7048.078582,11843.295072
928.659902,-1480.411884,2221.676944,11991.336260
928.660232,-4441.235652,-2681.334243,13397.727550
928.660561,-8068.244768,-4903.011187,14285.974681
928.660891,-11547.212695,-4366.744339,12583.501014
928.661221,-10510.924376,-4903.011187,10732.986159
928.661550,-6513.812290,-3830.477490,8290.306550
928.661880,-1036.288319,-2145.067394,4737.318029
928.662209,4737.318029,-1608.800546,3034.844362
928.662539,10140.821405,919.314598,4145.153275
928.662868,11103.089130,6205.373534,6513.812290
928.663198,7772.162391,10495.508323,9252.574275
928.663528,4663.297435,10418.898773,11843.295072
928.663857,1406.391290,8120.612279,13471.748144
928.664187,-1406.391290,3983.696590,14656.077652
928.664516,-5033.400406,-995.924147,14211.954086
928.664846,-8216.285956,-3677.258390,12879.583391
928.665175,-9696.697840,-5209.449386,11103.089130
928.665505,-9770.718434,-5822.325785,9178.553681
928.665835,-7328.038826,-4826.401637,6957.935855
928.666164,-3108.864956,-2451.505594,4219.173869
928.666494,2442.679609,-919.314598,3330.926739
928.666823,6587.832884,1608.800546,5255.462188
928.667153,7772.162391,6358.592633,7402.059420
928.667482,6439.791695,9269.755526,8956.491898
928.667812,4145.153275,9882.631924,11177.109724
928.668141,814.226536,8886.707777,12139.377449
928.668471,-1924.535449,4060.306139,13175.665768
928.668801,-4515.256246,-1915.238745,14137.933492
928.669130,-7179.997637,-4060.306139,13249.686362
928.669460,-9770.718434,-4826.401637,11547.212695
928.669789,-9178.553681,-5515.887586,10140.821405
928.670119,-6661.853478,-5056.230287,8512.368333
928.670448,-1998.556043,-2451.505594,5625.565159
928.670778,2886.803174,-1149.143247,3552.988522
928.671108,7846.182985,1685.410096,4293.194464
928.671437,9696.697840,5592.497135,7254.018232
928.671767,7328.038826,7890.783629,10214.842000
928.672096,3849.070898,9193.145976,12657.521608
928.672426,518.144159,7354.516781,14582.057057
928.672755,-1998.556043,2834.553343,15692.365970
928.673085,-5329.482782,0.000000,15470.304188
928.673415,-8512.368333,-2834.553343,13101.645173
928.673744,-9178.553681,-5975.544884,10066.800811
928.674074,-7920.203579,-6894.859482,7254.018232
928.674403,-6069.688724,-4749.792088,4959.379811
928.674733,-1628.453072,-2528.115143,3182.885551
928.675062,2664.741391,-1608.800546,3478.967927
928.675392,5255.462188,2528.115143,5699.585753
928.675721,5995.668130,6588.421283,7698.141797
928.676051,5181.441594,8733.488677,9178.553681
928.676381,3775.050304,8963.317327,10881.027347
928.676710,1036.288319,7354.516781,11769.274478
928.677040,-1036.288319,2068.457845,12287.418637
928.677369,-3849.070898,-4213.525239,14434.015869
928.677699,-7920.203579,-4443.353888,15248.242405
928.678028,-11695.253884,-3370.820191,13101.645173
928.678358,-11695.253884,-4213.525239,10510.924376
928.678688,-7476.080014,-4213.525239,8438.347739
928.679017,-1110.308913,-3064.381992,4589.276840
928.679347,4737.318029,-3217.601092,1850.514855
928.679676,9178.553681,-842.705048,2516.700203
928.680006,9918.759623,5515.887586,5625.565159
928.680335,7105.977043,8810.098227,10214.842000
928.680665,3552.988522,9729.412825,12435.459826
928.680994,370.102971,8580.269578,13249.686362
928.681324,-1554.432478,3677.258390,14656.077652
928.681654,-3552.988522,-1915.238745,16062.468941
928.681983,-7105.977043,-3753.867940,15174.221811
928.682313,-9844.739029,-4749.792088,12435.459826
928.682642,-10362.883188,-6052.154434,9918.759623
928.682972,-8586.388927,-4136.915689,7402.059420
928.683301,-4219.173869,-1838.629195,4663.297435
928.683631,2442.679609,-2298.286494,2220.617826
928.683961,6809.894666,-153.219100,3775.050304
928.684290,7550.100608,5286.058936,6365.771101
928.684620,5477.523971,8656.879127,8956.491898
928.684949,2960.823768,9959.241474,10288.862594
928.685279,0.000000,8350.440928,11695.253884
928.685608,-1998.556043,4979.620737,11621.233289
928.685938,-2960.823768,-2221.676944,12879.583391
928.686268,-5477.523971,-7124.688131,14878.139434
928.686597,-9844.739029,-5056.230287,14508.036463
928.686927,-11843.295072,-2987.772442,12879.583391
928.687256,-9326.594869,-3830.477490,10881.027347
928.687586,-4219.173869,-1532.190996,7476.080014
928.687915,2368.659014,0.000000,2960.823768
928.688245,9696.697840,-766.095498,962.267725
928.688574,14211.954086,2221.676944,3108.864956
928.688904,12139.377449,8044.002729,7402.059420
928.689234,7031.956449,10878.556072,10807.006753
928.689563,2442.679609,10035.851024,12879.583391
928.689893,-1332.370696,6818.249932,14285.974681
928.690222,-4071.132681,1072.533697,15914.427753
928.690552,-7328.038826,-3524.039291,14952.160028
928.690881,-10214.842000,-4903.011187,12731.542202
928.691211,-10436.903782,-6665.030833,10881.027347
928.691541,-9770.718434,-5898.935335,9400.615463
928.691870,-6957.935855,-2987.772442,5551.544565
928.692200,-1702.473667,-1685.410096,2294.638420
928.692529,4663.297435,-1072.533697,2590.720797
928.692859,8290.306550,3370.820191,5773.606348
928.693188,7698.141797,8044.002729,7846.182985
928.693518,5625.565159,10035.851024,8882.471304
928.693848,2664.741391,9959.241474,10658.965565
928.694177,-370.102971,7660.954980,12583.501014
928.694507,-2368.659014,2834.553343,13397.727550
928.694836,-4515.256246,-3524.039291,14137.933492
928.695166,-8142.265362,-5898.935335,13471.748144
928.695495,-11473.192101,-4060.306139,11917.315666
928.695825,-10066.800811,-4979.620737,11399.171507
928.696154,-5625.565159,-4366.744339,9400.615463
928.696484,-518.144159,-995.924147,5107.421000
928.696814,4663.297435,0.000000,2072.576638
928.697143,9770.718434,919.314598,3182.885551
928.697473,11177.109724,5286.058936,6439.791695
928.697802,7179.997637,9116.536426,9844.739029
928.698132,3330.926739,9729.412825,12657.521608
928.698461,-296.082377,7201.297681,14508.036463
928.698791,-3552.988522,2681.334243,15692.365970
928.699121,-7550.100608,-995.924147,15470.304188
928.699450,-9992.780217,-3753.867940,13249.686362
928.699780,-9622.677246,-5898.935335,10732.986159
928.700109,-8216.285956,-6818.249932,8882.471304
928.700439,-5625.565159,-4596.572988,6217.729913
928.700768,-814.226536,-3064.381992,2664.741391
928.701098,3997.112087,-1302.362347,2664.741391
928.701428,6883.915261,2604.724693,5551.544565
928.701757,7105.977043,7814.174080,8290.306550
928.702087,5551.544565,9959.241474,9474.636058
928.702416,3478.967927,8656.879127,10510.924376
928.702746,222.061783,5515.887586,11769.274478
928.703075,-1480.411884,612.876398,14211.954086
928.703405,-3997.112087,-3524.039291,15544.324782
928.703734,-8512.368333,-3447.429741,14508.036463
928.704064,-11029.068536,-3983.696590,11843.295072
928.704394,-9178.553681,-4519.963438,10066.800811
928.704723,-4885.359217,-4136.915689,8586.388927
928.705053,370.102971,-2145.067394,4515.256246
928.705382,5329.482782,-1455.581446,1554.432478
928.705712,9326.594869,2145.067394,2368.659014
928.706041,10362.883188,5822.325785,6513.812290
928.706371,6883.915261,7584.345430,10288.862594
928.706701,2442.679609,10342.289223,11991.336260
928.707030,-518.144159,8427.050478,13471.748144
928.707360,-2294.638420,2221.676944,15618.345376
928.707689,-5477.523971,-1762.019645,15766.386565
928.708019,-10066.800811,-4290.134789,14137.933492
928.708348,-11843.295072,-6205.373534,10955.047942
928.708678,-11029.068536,-5515.887586,9178.553681
928.709008,-8216.285956,-3677.258390,6883.915261
928.709337,-2590.720797,-2374.896044,3775.050304
928.709667,3182.885551,-2757.943793,2516.700203
928.709996,7105.977043,459.657299,4219.173869
928.710326,8216.285956,6281.983084,6661.853478
928.710655,6513.812290,9193.145976,8586.388927
928.710985,3775.050304,10189.070123,10214.842000
928.711314,592.164754,7660.954980,12361.439231
928.711644,-2220.617826,4979.620737,12879.583391
928.711974,-3627.009116,0.000000,13323.706956
928.712303,-5847.626942,-5898.935335,14137.933492
928.712633,-9844.739029,-5439.278036,14211.954086
928.712962,-12361.439231,-4519.963438,12879.583391
928.713292,-9474.636058,-4443.353888,10362.883188
928.713621,-4219.173869,-2834.553343,6587.832884
928.713951,2072.576638,-995.924147,2886.803174
928.714281,8364.327145,-995.924147,2072.576638
928.714610,11769.274478,1225.752797,4145.153275
928.714940,9474.636058,7124.688131,8068.244768
928.715269,5181.441594,11414.822920,11029.068536
928.715599,1628.453072,9499.584175,14063.912898
928.715928,-1480.411884,6588.421283,15322.262999
928.716258,-4737.318029,1072.533697,15692.365970
928.716587,-6883.915261,-3140.991542,14063.912898
928.716917,-8438.347739,-4673.182538,11473.192101
928.717247,-8438.347739,-5669.106685,9622.677246
928.717576,-7550.100608,-5132.839837,7994.224174
928.717906,-4737.318029,-3447.429741,5033.400406
928.718235,1110.308913,-1685.410096,2072.576638
928.718565,5995.668130,536.266849,3478.967927
928.718894,7846.182985,4443.353888,6143.709319
928.719224,6735.874072,9652.803275,7994.224174
928.719554,4811.338623,9729.412825,9400.615463
928.719883,2368.659014,8886.707777,11769.274478
928.720213,-888.247130,7584.345430,12879.583391
928.720542,-3627.009116,919.314598,14137.933492
928.720872,-6661.853478,-4060.306139,13989.892304
928.721201,-10362.883188,-4366.744339,12731.542202
928.721531,-11473.192101,-5056.230287,10510.924376
928.721861,-8290.306550,-5286.058936,8882.471304
928.722190,-3627.009116,-4136.915689,6809.894666
928.722520,1480.411884,-1608.800546,3478.967927
928.722849,5995.668130,-306.438199,2516.700203
928.723179,9252.574275,3140.991542,4737.318029
928.723508,8586.388927,7507.735880,8956.491898
928.723838,5107.421000,9882.631924,12213.398043
928.724167,1628.453072,10418.898773,15248.242405
928.724497,-666.185348,6665.030833,16580.613101
928.724827,-3478.967927,1378.971896,16506.592507
928.725156,-6809.894666,-1455.581446,13619.789333
928.725486,-8734.430116,-4290.134789,11029.068536
928.725815,-8364.327145,-6818.249932,8512.368333
928.726145,-7105.977043,-5898.935335,6291.750507
928.726474,-4145.153275,-4060.306139,3627.009116
928.726804,444.123565,-2681.334243,2442.679609
928.727134,3849.070898,-459.657299,4367.215058
928.727463,5403.503377,5056.230287,7105.977043
928.727793,4737.318029,8886.707777,8882.471304
928.728122,3627.009116,9499.584175,10362.883188
928.728452,2072.576638,8886.707777,12583.501014
928.728781,-962.267725,5439.278036,12879.583391
928.729111,-2886.803174,-689.485948,13767.830521
928.729441,-5847.626942,-3524.039291,13915.871710
928.729770,-9252.574275,-3600.648841,13323.706956
928.730100,-10510.924376,-4979.620737,11177.109724
928.730429,-8290.306550,-5822.325785,9844.739029
928.730759,-3775.050304,-4443.353888,6291.750507
928.731088,1702.473667,-2604.724693,2738.761985
928.731418,7031.956449,-1608.800546,1628.453072
928.731747,10066.800811,2757.943793,3701.029710
928.732077,9622.677246,6128.763984,7846.182985
928.732407,6883.915261,8350.440928,11769.274478
928.732736,3182.885551,10265.679673,14508.036463
928.733066,518.144159,7124.688131,16358.551318
928.733395,-1924.535449,1455.581446,16876.695478
928.733725,-5625.565159,-1991.848295,14508.036463
928.734054,-7698.141797,-4749.792088,11473.192101
928.734384,-8438.347739,-6818.249932,9104.533087
928.734714,-8882.471304,-5975.544884,7031.956449
928.735043,-7476.080014,-3600.648841,4219.173869
928.735373,-3330.926739,-3753.867940,3034.844362
928.735702,1850.514855,-2528.115143,5477.523971
928.736032,4663.297435,2374.896044,7920.203579
928.736361,4589.276840,6971.469032,8956.491898
928.736691,3478.967927,8273.831378,9030.512492
928.737021,3182.885551,8580.269578,11029.068536
928.737350,1036.288319,6281.983084,11917.315666
928.737680,-148.041188,689.485948,12953.603985
928.738009,-2886.803174,-3217.601092,14434.015869
928.738339,-7550.100608,-1762.019645,14211.954086
928.738668,-11103.089130,-2145.067394,12139.377449
928.738998,-9548.656652,-5822.325785,10510.924376
928.739327,-5255.462188,-5056.230287,7402.059420
928.739657,-888.247130,-2604.724693,3627.009116
928.739987,4811.338623,-2451.505594,2220.617826
928.740316,9178.553681,842.705048,3478.967927
928.740646,9030.512492,5898.935335,7328.038826
928.740975,6217.729913,9422.974625,10955.047942
928.741305,2442.679609,11721.261119,12139.377449
928.741634,518.144159,10112.460574,13101.645173
928.741964,-1184.329507,3907.087040,15248.242405
928.742294,-5329.482782,-1302.362347,15174.221811
928.742623,-9844.739029,-2834.553343,12879.583391
928.742953,-11547.212695,-5515.887586,10140.821405
928.743282,-11473.192101,-5745.716235,8882.471304
928.743612,-9696.697840,-4136.915689,6513.812290
928.743941,-4737.318029,-4136.915689,3108.864956
928.744271,2146.597232,-4519.963438,2738.761985
928.744601,7476.080014,1072.533697,4589.276840
928.744930,8142.265362,7737.564530,7031.956449
928.745260,6957.935855,10648.727422,9178.553681
928.745589,4811.338623,12104.308868,10881.027347
928.745919,2220.617826,10801.946522,12065.356855
928.746248,444.123565,5975.544884,13249.686362
928.746578,-1332.370696,-919.314598,14285.974681
928.746907,-5921.647536,-3294.210641,14211.954086
928.747237,-10510.924376,-3830.477490,11991.336260
928.747567,-10584.944971,-6435.202183,10362.883188
928.747896,-7031.956449,-6588.421283,9178.553681
928.748226,-2960.823768,-3907.087040,4959.379811
928.748555,1628.453072,-1915.238745,2368.659014
928.748885,6661.853478,229.828649,2738.761985
928.749214,9548.656652,4826.401637,6217.729913
928.749544,8068.244768,8427.050478,9918.759623
928.749873,4959.379811,9882.631924,12657.521608
928.750203,962.267725,10342.289223,14285.974681
928.750532,-1406.391290,6281.983084,15322.262999
928.750862,-3997.112087,153.219100,15100.201217
928.751191,-7105.977043,-3064.381992,12731.542202
928.751521,-8586.388927,-6358.592633,9770.718434
928.751851,-8438.347739,-8120.612279,8290.306550
928.752180,-7402.059420,-6128.763984,7031.956449
928.752510,-4663.297435,-3524.039291,4737.318029
928.752839,222.061783,-2757.943793,3701.029710
928.753169,4737.318029,0.000000,5699.585753
928.753498,7254.018232,5132.839837,7994.224174
928.753828,6513.812290,9269.755526,9622.677246
928.754157,4885.359217,10112.460574,10955.047942
928.754487,2442.679609,8733.488677,12139.377449
928.754816,0.000000,3983.696590,13767.830521
928.755146,-2442.679609,-842.705048,14804.118840
928.755475,-6513.812290,-2451.505594,13841.851115
928.755805,-10140.821405,-4903.011187,11399.171507
928.756134,-10510.924376,-6818.249932,9622.677246
928.756464,-7772.162391,-6741.640382,8364.327145
928.756794,-3256.906145,-4749.792088,5625.565159
928.757123,1554.432478,-2987.772442,3034.844362
928.757453,5773.606348,306.438199,3627.009116
928.757782,7772.162391,4673.182538,6957.935855
928.758112,7031.956449,7890.783629,10288.862594
928.758441,4663.297435,10878.556072,11843.295072
928.758771,2368.659014,10112.460574,12805.562797
928.759100,666.185348,4903.011187,14508.036463
928.759430,-3182.885551,-229.828649,15174.221811
928.759759,-7920.203579,-2451.505594,13619.789333
928.760089,-10807.006753,-5056.230287,11029.068536
928.760418,-10436.903782,-5745.716235,8586.388927
928.760748,-8586.388927,-5286.058936,6735.874072
928.761078,-4959.379811,-4903.011187,4737.318029
928.761407,0.000000,-4136.915689,3627.009116
928.761737,3701.029710,-612.876398,5033.400406
928.762066,5921.647536,5669.106685,7402.059420
928.762396,5625.565159,9729.412825,8660.409521
928.762725,4589.276840,10725.336972,10362.883188
928.763055,2664.741391,9576.193725,11695.253884
928.763384,666.185348,6128.763984,11547.212695
928.763714,-1110.308913,1532.190996,10807.006753
928.764043,-4219.173869,-3983.696590,13027.624579
928.764373,-8882.471304,-5132.839837,13915.871710
928.764702,-12731.542202,-4290.134789,12953.603985
928.765032,-11843.295072,-5132.839837,10881.027347
928.765362,-7105.977043,-4060.306139,7772.162391
928.765691,-962.267725,-1915.238745,4589.276840
928.766021,5847.626942,-1378.971896,3627.009116
928.766350,10214.842000,766.095498,4219.173869
928.766680,10140.821405,5898.935335,7254.018232
928.767009,7031.956449,10878.556072,9992.780217
928.767339,4071.132681,10418.898773,12731.542202
928.767668,1184.329507,7431.126331,14582.057057
928.767998,-1924.535449,2911.162892,15174.221811
928.768327,-5403.503377,-1991.848295,13841.851115
928.768657,-7772.162391,-3830.477490,11843.295072
928.768986,-8808.450710,-5822.325785,10066.800811
928.769316,-8512.368333,-5745.716235,8660.409521
928.769646,-6439.791695,-4519.963438,6661.853478
928.769975,-2072.576638,-3064.381992,3997.112087
928.770305,2960.823768,-842.705048,4441.235652
928.770634,6439.791695,2987.772442,6587.832884
928.770964,7179.997637,7890.783629,8438.347739
928.771293,5921.647536,10189.070123,8956.491898
928.771623,3849.070898,9116.536426,10807.006753
928.771952,666.185348,7584.345430,11473.192101
928.772282,-1924.535449,2528.115143,12213.398043
928.772611,-4737.318029,-2757.943793,13175.665768
928.772941,-8142.265362,-4136.915689,13841.851115
928.773270,-11251.130318,-4290.134789,12435.459826
928.773600,-10214.842000,-5745.716235,10510.924376
928.773930,-7031.956449,-5439.278036,8512.368333
928.774259,-1998.556043,-2757.943793,5551.544565
928.774589,3256.906145,-612.876398,3330.926739
928.774918,8216.285956,2145.067394,3923.091493
928.775248,10288.862594,5592.497135,6143.709319
928.775577,8364.327145,7660.954980,9474.636058
928.775907,5255.462188,9039.926876,12213.398043
928.776236,1924.535449,8350.440928,13767.830521
928.776566,-1258.350101,4366.744339,14878.139434
928.776895,-5699.585753,153.219100,14137.933492
928.777225,-8586.388927,-2604.724693,12657.521608
928.777554,-9474.636058,-5745.716235,10140.821405
928.777884,-8956.491898,-6971.469032,7846.182985
928.778213,-6661.853478,-4979.620737,6143.709319
928.778543,-3108.864956,-2757.943793,4441.235652
928.778873,740.205942,-1149.143247,4885.359217
928.779202,3923.091493,2068.457845,6439.791695
928.779532,4959.379811,6741.640382,7846.182985
928.779861,4737.318029,8120.612279,9548.656652
928.780191,3701.029710,8656.879127,11325.150913
928.780520,1110.308913,6971.469032,11917.315666
928.780850,-1184.329507,1762.019645,12731.542202
928.781179,-3997.112087,-3064.381992,14211.954086
928.781509,-7994.224174,-3447.429741,14359.995275
928.781838,-11177.109724,-3064.381992,13101.645173
928.782168,-10140.821405,-4749.792088,10658.965565
928.782497,-5699.585753,-4596.572988,7920.203579
928.782827,74.020594,-3217.601092,4515.256246
928.783157,5847.626942,-1991.848295,2886.803174
928.783486,9326.594869,1991.848295,3478.967927
928.783816,10362.883188,6588.421283,6587.832884
928.784145,8290.306550,8963.317327,9992.780217
928.784475,4811.338623,10189.070123,12361.439231
928.784804,1480.411884,8580.269578,13693.809927
928.785134,-1332.370696,4136.915689,13989.892304
928.785463,-4885.359217,-995.924147,14063.912898
928.785793,-9030.512492,-3217.601092,12509.480420
928.786122,-11029.068536,-5898.935335,10436.903782
928.786452,-11695.253884,-7277.907231,9104.533087
928.786781,-9696.697840,-4749.792088,7698.141797
928.787111,-4885.359217,-3294.210641,5329.482782
928.787441,888.247130,-2451.505594,4219.173869
928.787770,5773.606348,689.485948,4885.359217
928.788100,7698.141797,4979.620737,6217.729913
928.788429,7624.121203,8044.002729,7698.141797
928.788759,5773.606348,9346.365076,9696.697840
928.789088,2516.700203,8733.488677,12065.356855
928.789418,-222.061783,5209.449386,13323.706956
928.789747,-2886.803174,-1225.752797,14730.098246
928.790077,-6217.729913,-3753.867940,14730.098246
928.790406,-9992.780217,-4136.915689,13101.645173
928.790736,-10807.006753,-5975.544884,11103.089130
928.791065,-7994.224174,-5515.887586,9622.677246
928.791395,-3701.029710,-3294.210641,6439.791695
928.791725,1332.370696,-2068.457845,3552.988522
928.792054,6217.729913,-766.095498,3330.926739
928.792384,9104.533087,3830.477490,6069.688724
928.792713,7402.059420,7584.345430,8882.471304
928.793043,4811.338623,10035.851024,10881.027347
928.793372,1998.556043,9346.365076,11769.274478
928.793702,-518.144159,4826.401637,13101.645173
928.794031,-3330.926739,-1762.019645,14952.160028
928.794361,-8216.285956,-3064.381992,15174.221811
928.794690,-11769.274478,-4060.306139,13027.624579
928.795020,-11399.171507,-5209.449386,11103.089130
928.795349,-9252.574275,-4519.963438,9178.553681
928.795679,-4737.318029,-3064.381992,5625.565159
928.796008,1332.370696,-3294.210641,2442.679609
928.796338,6587.832884,-1225.752797,3256.906145
928.796668,9030.512492,5439.278036,5625.565159
928.796997,8142.265362,9652.803275,7254.018232
928.797327,6661.853478,9806.022374,8660.409521
928.797656,3775.050304,9576.193725,11325.150913
928.797986,370.102971,6818.249932,11547.212695
928.798315,-1998.556043,919.314598,12879.583391
928.798645,-5255.462188,-4213.525239,14582.057057
928.798974,-9622.677246,-3907.087040,14582.057057
928.799304,-11991.336260,-4213.525239,12361.439231
928.799633,-9474.636058,-5592.497135,10881.027347
928.799963,-5329.482782,-3600.648841,7624.121203
928.800292,-296.082377,-1302.362347,3552.988522
928.800622,5403.503377,-919.314598,2368.659014
928.800952,9770.718434,2834.553343,3627.009116
928.801281,9992.780217,7354.516781,7402.059420
928.801611,7031.956449,9729.412825,10214.842000
928.801940,3478.967927,9959.241474,11843.295072
928.802270,222.061783,7201.297681,12953.603985
928.802599,-2516.700203,995.924147,15248.242405
928.802929,-6069.688724,-2068.457845,15618.345376
928.803258,-9474.636058,-3064.381992,13619.789333
928.803588,-10140.821405,-5515.887586,11473.192101
928.803917,-9474.636058,-6205.373534,9548.656652
928.804247,-5847.626942,-3370.820191,6513.812290
928.804576,-592.164754,-2528.115143,3256.906145
928.804906,4737.318029,-1991.848295,3849.070898
928.805236,7328.038826,3753.867940,5921.647536
928.805565,7254.018232,7814.174080,7920.203579
928.805895,5847.626942,8656.879127,9178.553681
928.806224,3330.926739,9193.145976,10732.986159
928.806554,0.000000,7660.954980,11547.212695
928.806883,-2294.638420,1762.019645,12731.542202
928.807213,-4811.338623,-3983.696590,14211.954086
928.807542,-9178.553681,-4136.915689,14656.077652
928.807872,-12287.418637,-4366.744339,12287.418637
928.808201,-10584.944971,-5592.497135,10955.047942
928.808531,-6291.750507,-4519.963438,8290.306550
928.808860,-814.226536,-2834.553343,4737.318029
928.809190,4589.276840,-1991.848295,2516.700203
928.809520,9252.574275,995.924147,2886.803174
928.809849,9622.677246,6052.154434,6069.688724
928.810179,7179.997637,9499.584175,9474.636058
928.810508,4145.153275,10035.851024,11769.274478
928.810838,1406.391290,7201.297681,13101.645173
928.811167,-1184.329507,1838.629195,14730.098246
928.811497,-4811.338623,-1838.629195,14952.160028
928.811826,-8734.430116,-3294.210641,13693.809927
928.812156,-9992.780217,-4979.620737,11843.295072
928.812485,-9326.594869,-5898.935335,9844.739029
928.812815,-6883.915261,-4213.525239,7105.977043
928.813144,-1702.473667,-2911.162892,4219.173869
928.813474,3552.988522,-2298.286494,3330.926739
928.813804,6143.709319,2145.067394,5033.400406
928.814133,6365.771101,7048.078582,7105.977043
928.814463,5625.565159,8733.488677,9326.594869
928.814792,3997.112087,9039.926876,10658.965565
928.815122,592.164754,7354.516781,11177.109724
928.815451,-1998.556043,1991.848295,12139.377449
928.815781,-4589.276840,-3447.429741,14211.954086
928.816110,-8660.409521,-3447.429741,15026.180623
928.816440,-11769.274478,-3294.210641,13693.809927
928.816769,-11399.171507,-4903.011187,11325.150913
928.817099,-7254.018232,-4290.134789,8660.409521
928.817428,-1406.391290,-2911.162892,4885.359217
928.817758,4441.235652,-2451.505594,2516.700203
928.818087,8882.471304,995.924147,3034.844362
928.818417,10066.800811,5822.325785,6143.709319
928.818747,7994.224174,8963.317327,9992.780217
928.819076,4219.173869,10418.898773,11473.192101
928.819406,1702.473667,8044.002729,12731.542202
928.819735,-370.102971,2604.724693,14804.118840
928.820065,-4737.318029,-1685.410096,15174.221811
928.820394,-9104.533087,-2221.676944,14434.015869
928.820724,-10732.986159,-4826.401637,12139.377449
928.821053,-9770.718434,-5975.544884,10436.903782
928.821383,-7846.182985,-4903.011187,7476.080014
928.821712,-3256.906145,-3140.991542,3627.009116
928.822042,2368.659014,-2298.286494,2146.597232
928.822371,6439.791695,536.266849,4663.297435
928.822701,7105.977043,6588.421283,7105.977043
928.823031,5551.544565,9499.584175,8808.450710
928.823360,3997.112087,9729.412825,10436.903782
928.823690,1036.288319,8120.612279,11325.150913
928.824019,-1332.370696,4826.401637,12213.398043
928.824349,-2960.823768,-2374.896044,14211.954086
928.824678,-6217.729913,-4749.792088,15544.324782
928.825008,-10955.047942,-3447.429741,13841.851115
928.825337,-11769.274478,-4826.401637,11251.130318
928.825667,-8142.265362,-5286.058936,9178.553681
928.825996,-2368.659014,-2987.772442,5995.668130
928.826326,3182.885551,-1685.410096,2812.782580
928.826655,9104.533087,0.000000,1850.514855
928.826985,11843.295072,4290.134789,4071.132681
928.827315,9918.759623,7354.516781,7698.141797
928.827644,6217.729913,10265.679673,11103.089130
928.827974,2368.659014,10035.851024,13471.748144
928.828303,-518.144159,5745.716235,15248.242405
928.828633,-4145.153275,76.609550,16210.510130
928.828962,-8290.306550,-2451.505594,14582.057057
928.829292,-10214.842000,-4903.011187,12287.418637
928.829621,-9918.759623,-7660.954980,10362.883188
928.829951,-8882.471304,-5745.716235,7476.080014
928.830280,-5477.523971,-3447.429741,4293.194464
928.830610,592.164754,-2987.772442,2146.597232
928.830939,5181.441594,-383.047749,4071.132681
928.831269,6513.812290,5132.839837,7031.956449
928.831599,5847.626942,9193.145976,9030.512492
928.831928,4515.256246,10572.117872,10362.883188
928.832258,2368.659014,9806.022374,11843.295072
928.832587,-592.164754,6435.202183,11251.130318
928.832917,-2368.659014,-842.705048,12879.583391
928.833246,-4959.379811,-5362.668486,14656.077652
928.833576,-9622.677246,-4366.744339,14285.974681
928.833905,-12139.377449,-3830.477490,11843.295072
928.834235,-9326.594869,-5209.449386,10214.842000
928.834564,-3627.009116,-4290.134789,7476.080014
928.834894,1850.514855,-2221.676944,3478.967927
928.835223,7402.059420,-689.485948,2368.659014
928.835553,10584.944971,3524.039291,3627.009116
928.835882,9326.594869,8886.707777,7105.977043
928.836212,5847.626942,10265.679673,10510.924376
928.836542,2072.576638,10801.946522,12731.542202
928.836871,-1110.308913,7814.174080,13619.789333
928.837201,-3701.029710,536.266849,14211.954086
928.837530,-7254.018232,-3294.210641,13915.871710
928.837860,-10362.883188,-5669.106685,12805.562797
928.838189,-10658.965565,-8197.221829,10807.006753
928.838519,-10214.842000,-7354.516781,8956.491898
928.838848,-6957.935855,-4136.915689,6735.874072
928.839178,-1184.329507,-2451.505594,3849.070898
928.839507,4885.359217,-2298.286494,3478.967927
928.839837,7994.224174,3907.087040,5699.585753
928.840166,8586.388927,8580.269578,7994.224174
928.840496,7254.018232,10265.679673,10066.800811
928.840826,4589.276840,10265.679673,11547.212695
928.841155,1110.308913,6665.030833,12805.562797
928.841485,-1184.329507,1378.971896,13767.830521
928.841814,-4145.153275,-2528.115143,14211.954086
928.842144,-8290.306550,-4979.620737,13175.665768
928.842473,-10510.924376,-5669.106685,11399.171507
928.842803,-10140.821405,-6205.373534,10362.883188
928.843132,-6439.791695,-5286.058936,7772.162391
928.843462,-2072.576638,-3064.381992,4811.338623
928.843791,2960.823768,-842.705048,2738.761985
928.844121,7624.121203,2987.772442,4663.297435
928.844450,8882.471304,5592.497135,7846.182985
928.844780,6439.791695,9193.145976,10140.821405
928.845110,3108.864956,10955.165621,11325.150913
928.845439,962.267725,8273.831378,12509.480420
928.845769,-1110.308913,2528.115143,13915.871710
928.846098,-5033.400406,-1915.238745,13989.892304
928.846428,-8956.491898,-4519.963438,12065.356855
928.846757,-10658.965565,-6435.202183,9992.780217
928.847087,-10066.800811,-6281.983084,9474.636058
928.847416,-7550.100608,-4366.744339,8290.306550
928.847746,-3108.864956,-3140.991542,5255.462188
928.848075,1998.556043,-1838.629195,3330.926739
928.848405,6587.832884,1225.752797,4589.276840
928.848734,7920.203579,6358.592633,7476.080014
928.849064,6439.791695,9806.022374,9918.759623
928.849394,3997.112087,10572.117872,11695.253884
928.849723,1036.288319,8656.879127,12361.439231
928.850053,-814.226536,4290.134789,11917.315666
928.850382,-3478.967927,-1991.848295,13027.624579
928.850712,-6957.935855,-4903.011187,13397.727550
928.851041,-10955.047942,-4290.134789,11991.336260
928.851371,-11251.130318,-5669.106685,10658.965565
928.851700,-7846.182985,-5056.230287,8956.491898
928.852030,-3627.009116,-2451.505594,5773.606348
928.852359,1776.494261,-1532.190996,3404.947333
928.852689,7179.997637,536.266849,3849.070898
928.853018,9844.739029,5132.839837,6217.729913
928.853348,8216.285956,9269.755526,9400.615463
928.853677,5551.544565,10801.946522,10658.965565
928.854007,2590.720797,9806.022374,11991.336260
928.854337,222.061783,4903.011187,13915.871710
928.854666,-3404.947333,-153.219100,14359.995275
928.854996,-7402.059420,-2451.505594,13175.665768
928.855325,-9252.574275,-4519.963438,11251.130318
928.855655,-9474.636058,-6588.421283,9992.780217
928.855984,-8216.285956,-5592.497135,8734.430116
928.856314,-4737.318029,-3753.867940,5403.503377
928.856643,814.226536,-2451.505594,2886.803174
928.856973,5995.668130,919.314598,3923.091493
928.857302,7698.141797,4979.620737,6365.771101
928.857632,7476.080014,8580.269578,9474.636058
928.857961,4959.379811,10648.727422,10807.006753
928.858291,1628.453072,9806.022374,11991.336260
928.858620,-592.164754,5515.887586,13175.665768
928.858950,-3256.906145,-536.266849,14137.933492
928.859280,-5995.668130,-3983.696590,13693.809927
928.859609,-9178.553681,-5439.278036,11769.274478
928.859939,-9992.780217,-5745.716235,10066.800811
928.860268,-8216.285956,-5745.716235,9400.615463
928.860598,-4145.153275,-4366.744339,7179.997637
928.860927,148.041188,-1532.190996,4293.194464
928.861257,5329.482782,995.924147,4367.215058
928.861586,8882.471304,4290.134789,6069.688724
928.861916,8290.306550,7354.516781,8660.409521
928.862245,5847.626942,10189.070123,10732.986159
928.862575,3034.844362,8886.707777,12139.377449
928.862904,740.205942,5286.058936,13989.892304
928.863234,-2738.761985,1302.362347,14656.077652
928.863563,-7105.977043,-2451.505594,13471.748144
928.863893,-9844.739029,-5515.887586,11325.150913
928.864223,-10362.883188,-6894.859482,9400.615463
928.864552,-9178.553681,-6435.202183,8586.388927
928.864882,-5847.626942,-4366.744339,7179.997637
928.865211,-1480.411884,-2221.676944,4811.338623
928.865541,3182.885551,76.609550,4885.359217
928.865870,6809.894666,3370.820191,6143.709319
928.866200,6957.935855,7124.688131,8512.368333
928.866529,5625.565159,9499.584175,10066.800811
928.866859,2886.803174,9576.193725,11251.130318
928.867188,518.144159,6052.154434,11843.295072
928.867518,-1628.453072,0.000000,13101.645173
928.867847,-5181.441594,-3447.429741,13249.686362
928.868177,-9030.512492,-4290.134789,12657.521608
928.868506,-11103.089130,-4826.401637,10955.047942
928.868836,-9474.636058,-5515.887586,10214.842000
928.869166,-5995.668130,-4290.134789,7698.141797
928.869495,-1110.308913,-2834.553343,4737.318029
928.869825,4441.235652,-689.485948,3701.029710
928.870154,8290.306550,3294.210641,5033.400406
928.870484,8660.409521,7201.297681,7698.141797
928.870813,6735.874072,9422.974625,10214.842000
928.871143,3849.070898,9499.584175,11251.130318
928.871472,1406.391290,6741.640382,12435.459826
928.871802,-1554.432478,1838.629195,14137.933492
928.872131,-5403.503377,-1838.629195,13841.851115
928.872461,-8956.491898,-4366.744339,12139.377449
928.872790,-10288.862594,-5975.544884,10510.924376
928.873120,-10362.883188,-5515.887586,9622.677246
928.873449,-7550.100608,-4290.134789,7846.182985
928.873779,-2812.782580,-2681.334243,5255.462188
928.874109,2442.679609,76.609550,4145.153275
928.874438,6365.771101,3447.429741,5329.482782
928.874768,8142.265362,6128.763984,7550.100608
928.875097,6513.812290,8656.879127,9622.677246
928.875427,3108.864956,9652.803275,10807.006753
928.875756,444.123565,6588.421283,12731.542202
928.876086,-1776.494261,1532.190996,14508.036463
928.876415,-4663.297435,-995.924147,14434.015869
928.876745,-7698.141797,-3907.087040,12065.356855
928.877074,-9104.533087,-5669.106685,10510.924376
928.877404,-8142.265362,-5362.668486,9326.594869
928.877733,-5181.441594,-4443.353888,7402.059420
928.878063,-518.144159,-1762.019645,4737.318029
928.878392,4293.194464,1225.752797,4219.173869
928.878722,8364.327145,3600.648841,5477.523971
928.879052,9030.512492,6665.030833,7698.141797
928.879381,7328.038826,9499.584175,9548.656652
928.879711,4589.276840,9499.584175,10658.965565
928.880040,1998.556043,5975.544884,13027.624579
928.880370,-1480.411884,1378.971896,14804.118840
928.880699,-6291.750507,-1455.581446,14878.139434
928.881029,-10140.821405,-3677.258390,12657.521608
928.881358,-11177.109724,-5286.058936,10510.924376
928.881688,-9770.718434,-5822.325785,9104.533087
928.882017,-7402.059420,-5439.278036,7031.956449
928.882347,-2960.823768,-3217.601092,4515.256246
928.882676,2442.679609,-1149.143247,4145.153275
928.883006,6291.750507,3370.820191,5329.482782
928.883335,6957.935855,7124.688131,6957.935855
928.883665,7105.977043,8197.221829,8216.285956
928.883995,4515.256246,8580.269578,9992.780217
928.884324,1776.494261,7507.735880,11769.274478
928.884654,-296.082377,3677.258390,13397.727550
928.884983,-3108.864956,-2374.896044,14952.160028
928.885313,-7031.956449,-4060.306139,14285.974681
928.885642,-10436.903782,-3753.867940,12583.501014
928.885972,-10288.862594,-4979.620737,11399.171507
928.886301,-6883.915261,-3983.696590,9178.553681
928.886631,-2738.761985,-1685.410096,5995.668130
928.886960,2220.617826,-153.219100,3034.844362
928.887290,7105.977043,1149.143247,3404.947333
928.887619,8586.388927,4519.963438,5921.647536
928.887949,6143.709319,7890.783629,8512.368333
928.888278,3404.947333,8963.317327,10584.944971
928.888608,1332.370696,7737.564530,11103.089130
928.888938,-962.267725,3294.210641,13175.665768
928.889267,-4145.153275,-2451.505594,14804.118840
928.889597,-7994.224174,-3600.648841,14508.036463
928.889926,-11103.089130,-4596.572988,12583.501014
928.890256,-11325.150913,-5132.839837,11473.192101
928.890585,-8882.471304,-3830.477490,9770.718434
928.890915,-3627.009116,-2221.676944,6513.812290
928.891244,2812.782580,-1455.581446,3108.864956
928.891574,7846.182985,76.609550,3034.844362
928.891903,9770.718434,5209.449386,5107.421000
